acc,accuracy,average_response_time,avg_rt,background,batchId,batchTitle,bidi,canvas_backend,clock_backend,color_backend,compensation,componentId,componentPos,componentResultId,componentTitle,coordinates,correct,count_Goodbye_message,count_Instructions_1,count_ParticipantNumber,count_blank500,count_blank500_1,difficulty,count_difficult_loop,count_easy_loop,count_experiment,count_get_input_sequence,count_init_1,count_mind_wandering,count_mind_wandering_1,count_mw_1,count_mw_new_keyboard_response_1,count_new_keyboard_response,count_new_logger,count_new_sequence,count_new_sequence_1,count_new_sketchpad_2,count_number_input,count_osweb,count_process_input,count_shapes,count_shapes_1,count_shapes_new_keyboard_response,count_show_input,cr,datetime,description,disable_garbage_collection,empty_column,experiment_path,font_bold,font_family,font_italic,font_size,font_underline,foreground,form_clicks,fullscreen,groupMemberId,groupResultId,height,keyboard_backend,mouse_backend,multichar_response,mw,opensesame_codename,opensesame_version,response,response_Instructions_1,response_mind_wandering,response_numeric,response_mind_wandering_1,response_mw_1,response_mw_new_keyboard_response_1,response_new_keyboard_response,response_new_sketchpad_2,response_number_input,response_shapes_new_keyboard_response,response_time,response_time_Instructions_1,response_time_mind_wandering,response_time_mind_wandering_1,response_time_mw_1,response_time_mw_new_keyboard_response_1,response_time_new_keyboard_response,response_time_new_sketchpad_2,response_time_number_input,response_time_shapes_new_keyboard_response,round_decimals,sampler_backend,sessionid,shapes,sound_buf_size,sound_channels,sound_freq,sound_sample_size,start,studyId,studyResultId,studyTitle,subject_nr,subject_parity,time_Instructions_1,time_ParticipantNumber,time_blank500,time_blank500_1,time_difficult_loop,time_easy_loop,time_init_1,time_mind_wandering,time_mind_wandering_1,time_mw_1,time_mw_new_keyboard_response_1,time_new_keyboard_response,time_new_logger,time_new_sketchpad_2,time_number_input,time_process_input,time_shapes,time_shapes_1,time_shapes_new_keyboard_response,time_show_input,title,title_numeric,total_correct,total_response_time,total_responses,uniform_coordinates,width,workerId
0,0,799,799,white,139,Default,no,psycho,psycho,psycho,0,139,1,4647,OSWeb experiment,uniform,0,0,0,0,0,,easy,0,0,0,4,0,0,,,0,,0,0,,0,4,0,4,0,,0,4,,Fri Mar 19 2021 09:26:39 GMT+0000 (Greenwich Mean Time),The main experiment item,yes,,/Users/hannahwindmill/Desktop/OneDrive/PhD/Teaching/experiments/Z4,no,mono,no,18,no,black,no,no,None,null,768,psycho,psycho,0w1cb,0,osweb,1.3.3,None,enter,,,,,,,,enter,None,816,35148,,,,,,,1269,816,2,psycho,1.62E+12,Circle.jpg,1024,2,48000,-16,experiment,139,6404,Experiment 2,4647,odd,4246,86,39407,,86,86,55,,,,,,41246,,2965,4245,39914,,40428,2965,New experiment,2,0,4796,6,yes,1024,6276
0,0,802,802,white,139,Default,no,psycho,psycho,psycho,0,139,1,4647,OSWeb experiment,uniform,0,0,0,0,1,,easy,0,0,0,4,0,1,,,1,,1,1,,0,4,0,4,1,,1,4,,Fri Mar 19 2021 09:26:39 GMT+0000 (Greenwich Mean Time),The main experiment item,yes,,/Users/hannahwindmill/Desktop/OneDrive/PhD/Teaching/experiments/Z4,no,mono,no,18,no,black,no,no,None,null,768,psycho,psycho,0w1cb,1,osweb,1.3.3,None,enter,,,,,,,,enter,None,816,35148,,,,,,,1269,816,2,psycho,1.62E+12,Diamond.jpg,1024,2,48000,-16,experiment,139,6404,Experiment 2,4647,odd,4246,86,41274,,86,86,55,,,,,,43110,,2965,4245,41777,,42293,2965,New experiment,2,0,5612,7,yes,1024,6276
13,13,702,702,white,139,Default,no,psycho,psycho,psycho,0,139,1,4647,OSWeb experiment,uniform,1,0,0,0,2,,easy,0,0,0,4,0,2,,,2,,2,2,,0,4,0,4,2,,2,4,s,Fri Mar 19 2021 09:26:39 GMT+0000 (Greenwich Mean Time),The main experiment item,yes,,/Users/hannahwindmill/Desktop/OneDrive/PhD/Teaching/experiments/Z4,no,mono,no,18,no,black,no,no,None,null,768,psycho,psycho,0w1cb,1,osweb,1.3.3,s,enter,,,,,,,,enter,s,7,35148,,,,,,,1269,7,2,psycho,1.62E+12,Square.jpg,1024,2,48000,-16,experiment,139,6404,Experiment 2,4647,odd,4246,86,43134,,86,86,55,,,,,,44175,,2965,4245,43643,,44158,2965,New experiment,2,1,5619,8,yes,1024,6276
11,11,715,715,white,139,Default,no,psycho,psycho,psycho,0,139,1,4647,OSWeb experiment,uniform,0,0,0,0,3,,easy,0,0,0,4,0,3,,,3,,3,3,,0,4,0,4,3,,3,4,,Fri Mar 19 2021 09:26:39 GMT+0000 (Greenwich Mean Time),The main experiment item,yes,,/Users/hannahwindmill/Desktop/OneDrive/PhD/Teaching/experiments/Z4,no,mono,no,18,no,black,no,no,None,null,768,psycho,psycho,0w1cb,1,osweb,1.3.3,None,enter,,,,,,,,enter,None,815,35148,,,,,,,1269,815,2,psycho,1.62E+12,Star.jpg,1024,2,48000,-16,experiment,139,6404,Experiment 2,4647,odd,4246,86,44198,,86,86,55,,,,,,46040,,2965,4245,44708,,45224,2965,New experiment,2,1,6434,9,yes,1024,6276
10,10,725,725,white,139,Default,no,psycho,psycho,psycho,0,139,1,4647,OSWeb experiment,uniform,0,0,0,0,4,,easy,0,0,0,4,0,4,,,4,,4,4,,0,4,0,4,4,,4,4,,Fri Mar 19 2021 09:26:39 GMT+0000 (Greenwich Mean Time),The main experiment item,yes,,/Users/hannahwindmill/Desktop/OneDrive/PhD/Teaching/experiments/Z4,no,mono,no,18,no,black,no,no,None,null,768,psycho,psycho,0w1cb,1,osweb,1.3.3,None,enter,,,,,,,,enter,None,816,35148,,,,,,,1269,816,2,psycho,1.62E+12,Triangle.jpg,1024,2,48000,-16,experiment,139,6404,Experiment 2,4647,odd,4246,86,46061,,86,86,55,,,,,,47905,,2965,4245,46573,,47088,2965,New experiment,2,1,7250,10,yes,1024,6276
9,9,733,733,white,139,Default,no,psycho,psycho,psycho,0,139,1,4647,OSWeb experiment,uniform,0,0,0,0,5,,easy,0,0,0,4,0,5,,,5,,5,5,,0,4,0,4,5,,5,4,,Fri Mar 19 2021 09:26:39 GMT+0000 (Greenwich Mean Time),The main experiment item,yes,,/Users/hannahwindmill/Desktop/OneDrive/PhD/Teaching/experiments/Z4,no,mono,no,18,no,black,no,no,None,null,768,psycho,psycho,0w1cb,1,osweb,1.3.3,None,enter,,,,,,,,enter,None,816,35148,,,,,,,1269,816,2,psycho,1.62E+12,Circle.jpg,1024,2,48000,-16,experiment,139,6404,Experiment 2,4647,odd,4246,86,47930,,86,86,55,,,,,,49770,,2965,4245,48438,,48953,2965,New experiment,2,1,8066,11,yes,1024,6276
8,8,740,740,white,139,Default,no,psycho,psycho,psycho,0,139,1,4647,OSWeb experiment,uniform,0,0,0,0,6,,easy,0,0,0,4,0,6,,,6,,6,6,,0,4,0,4,6,,6,4,,Fri Mar 19 2021 09:26:39 GMT+0000 (Greenwich Mean Time),The main experiment item,yes,,/Users/hannahwindmill/Desktop/OneDrive/PhD/Teaching/experiments/Z4,no,mono,no,18,no,black,no,no,None,null,768,psycho,psycho,0w1cb,1,osweb,1.3.3,None,enter,,,,,,,,enter,None,816,35148,,,,,,,1269,816,2,psycho,1.62E+12,Diamond.jpg,1024,2,48000,-16,experiment,139,6404,Experiment 2,4647,odd,4246,86,49793,,86,86,55,,,,,,51635,,2965,4245,50303,,50818,2965,New experiment,2,1,8882,12,yes,1024,6276
8,8,746,746,white,139,Default,no,psycho,psycho,psycho,0,139,1,4647,OSWeb experiment,uniform,0,0,0,0,7,,easy,0,0,0,4,0,7,,,7,,7,7,,0,4,0,4,7,,7,4,s,Fri Mar 19 2021 09:26:39 GMT+0000 (Greenwich Mean Time),The main experiment item,yes,,/Users/hannahwindmill/Desktop/OneDrive/PhD/Teaching/experiments/Z4,no,mono,no,18,no,black,no,no,None,null,768,psycho,psycho,0w1cb,1,osweb,1.3.3,None,enter,,,,,,,,enter,None,816,35148,,,,,,,1269,816,2,psycho,1.62E+12,Square.jpg,1024,2,48000,-16,experiment,139,6404,Experiment 2,4647,odd,4246,86,51662,,86,86,55,,,,,,53500,,2965,4245,52168,,52683,2965,New experiment,2,1,9698,13,yes,1024,6276
7,7,751,751,white,139,Default,no,psycho,psycho,psycho,0,139,1,4647,OSWeb experiment,uniform,0,0,0,0,8,,easy,0,0,0,4,0,8,,,8,,8,8,,0,4,0,4,8,,8,4,,Fri Mar 19 2021 09:26:39 GMT+0000 (Greenwich Mean Time),The main experiment item,yes,,/Users/hannahwindmill/Desktop/OneDrive/PhD/Teaching/experiments/Z4,no,mono,no,18,no,black,no,no,None,null,768,psycho,psycho,0w1cb,1,osweb,1.3.3,None,enter,,,,,,,,enter,None,817,35148,,,,,,,1269,817,2,psycho,1.62E+12,Star.jpg,1024,2,48000,-16,experiment,139,6404,Experiment 2,4647,odd,4246,86,53569,,86,86,55,,,,,,55415,,2965,4245,54083,,54598,2965,New experiment,2,1,10515,14,yes,1024,6276
7,7,755,755,white,139,Default,no,psycho,psycho,psycho,0,139,1,4647,OSWeb experiment,uniform,0,0,0,0,9,,easy,0,0,0,4,0,9,,,9,,9,9,,0,4,0,4,9,,9,4,,Fri Mar 19 2021 09:26:39 GMT+0000 (Greenwich Mean Time),The main experiment item,yes,,/Users/hannahwindmill/Desktop/OneDrive/PhD/Teaching/experiments/Z4,no,mono,no,18,no,black,no,no,None,null,768,psycho,psycho,0w1cb,1,osweb,1.3.3,None,enter,,,,,,,,enter,None,816,35148,,,,,,,1269,816,2,psycho,1.62E+12,Triangle.jpg,1024,2,48000,-16,experiment,139,6404,Experiment 2,4647,odd,4246,86,55439,,86,86,55,,,,,,57279,,2965,4245,55947,,56463,2965,New experiment,2,1,11331,15,yes,1024,6276
6,6,759,759,white,139,Default,no,psycho,psycho,psycho,0,139,1,4647,OSWeb experiment,uniform,0,0,0,0,10,,easy,0,0,0,4,0,10,,,10,,10,10,,0,4,0,4,10,,10,4,,Fri Mar 19 2021 09:26:39 GMT+0000 (Greenwich Mean Time),The main experiment item,yes,,/Users/hannahwindmill/Desktop/OneDrive/PhD/Teaching/experiments/Z4,no,mono,no,18,no,black,no,no,None,null,768,psycho,psycho,0w1cb,1,osweb,1.3.3,None,enter,,,,,,,,enter,None,816,35148,,,,,,,1269,816,2,psycho,1.62E+12,Circle.jpg,1024,2,48000,-16,experiment,139,6404,Experiment 2,4647,odd,4246,86,57302,,86,86,55,,,,,,59144,,2965,4245,57813,,58328,2965,New experiment,2,1,12147,16,yes,1024,6276
6,6,763,763,white,139,Default,no,psycho,psycho,psycho,0,139,1,4647,OSWeb experiment,uniform,0,0,0,0,11,,easy,0,0,0,4,0,11,,,11,,11,11,,0,4,0,4,11,,11,4,,Fri Mar 19 2021 09:26:39 GMT+0000 (Greenwich Mean Time),The main experiment item,yes,,/Users/hannahwindmill/Desktop/OneDrive/PhD/Teaching/experiments/Z4,no,mono,no,18,no,black,no,no,None,null,768,psycho,psycho,0w1cb,1,osweb,1.3.3,None,enter,,,,,,,,enter,None,816,35148,,,,,,,1269,816,2,psycho,1.62E+12,Diamond.jpg,1024,2,48000,-16,experiment,139,6404,Experiment 2,4647,odd,4246,86,59168,,86,86,55,,,,,,61009,,2965,4245,59677,,60193,2965,New experiment,2,1,12963,17,yes,1024,6276
6,6,765,765,white,139,Default,no,psycho,psycho,psycho,0,139,1,4647,OSWeb experiment,uniform,0,0,0,0,12,,easy,0,0,0,4,0,12,,,12,,12,12,,0,4,0,4,12,,12,4,s,Fri Mar 19 2021 09:26:39 GMT+0000 (Greenwich Mean Time),The main experiment item,yes,,/Users/hannahwindmill/Desktop/OneDrive/PhD/Teaching/experiments/Z4,no,mono,no,18,no,black,no,no,None,null,768,psycho,psycho,0w1cb,1,osweb,1.3.3,None,enter,,,,,,,,enter,None,815,35148,,,,,,,1269,815,2,psycho,1.62E+12,Square.jpg,1024,2,48000,-16,experiment,139,6404,Experiment 2,4647,odd,4246,86,61030,,86,86,55,,,,,,62874,,2965,4245,61543,,62058,2965,New experiment,2,1,13778,18,yes,1024,6276
5,5,768,768,white,139,Default,no,psycho,psycho,psycho,0,139,1,4647,OSWeb experiment,uniform,0,0,0,0,13,,easy,0,0,0,4,0,13,,,13,,13,13,,0,4,0,4,13,,13,4,,Fri Mar 19 2021 09:26:39 GMT+0000 (Greenwich Mean Time),The main experiment item,yes,,/Users/hannahwindmill/Desktop/OneDrive/PhD/Teaching/experiments/Z4,no,mono,no,18,no,black,no,no,None,null,768,psycho,psycho,0w1cb,1,osweb,1.3.3,None,enter,,,,,,,,enter,None,816,35148,,,,,,,1269,816,2,psycho,1.62E+12,Star.jpg,1024,2,48000,-16,experiment,139,6404,Experiment 2,4647,odd,4246,86,62903,,86,86,55,,,,,,64739,,2965,4245,63407,,63922,2965,New experiment,2,1,14594,19,yes,1024,6276
5,5,801,801,white,139,Default,no,psycho,psycho,psycho,0,139,1,4647,OSWeb experiment,uniform,0,0,0,0,14,,easy,0,0,0,4,0,14,,,14,,14,14,,0,4,0,4,14,,14,4,,Fri Mar 19 2021 09:26:39 GMT+0000 (Greenwich Mean Time),The main experiment item,yes,,/Users/hannahwindmill/Desktop/OneDrive/PhD/Teaching/experiments/Z4,no,mono,no,18,no,black,no,no,None,null,768,psycho,psycho,0w1cb,1,osweb,1.3.3,n,enter,n,0,,,n,,,enter,None,1410,35148,2590,,,1410,,,1269,816,2,psycho,1.62E+12,Triangle.jpg,1024,2,48000,-16,experiment,139,6404,Experiment 2,4647,odd,4246,86,64772,,86,86,55,66622,,,69218,,70633,,2965,4245,65289,,65804,2965,New experiment,2,1,16820,21,yes,1024,6276
5,5,802,802,white,139,Default,no,psycho,psycho,psycho,0,139,1,4647,OSWeb experiment,uniform,0,0,0,0,15,,easy,0,0,0,4,0,15,,,15,,15,15,,0,4,0,4,15,,15,4,,Fri Mar 19 2021 09:26:39 GMT+0000 (Greenwich Mean Time),The main experiment item,yes,,/Users/hannahwindmill/Desktop/OneDrive/PhD/Teaching/experiments/Z4,no,mono,no,18,no,black,no,no,None,null,768,psycho,psycho,0w1cb,1,osweb,1.3.3,None,enter,n,0,,,n,,,enter,None,816,35148,2590,,,1410,,,1269,816,2,psycho,1.62E+12,Circle.jpg,1024,2,48000,-16,experiment,139,6404,Experiment 2,4647,odd,4246,86,70657,,86,86,55,66622,,,69218,,72498,,2965,4245,71166,,71682,2965,New experiment,2,1,17636,22,yes,1024,6276
4,4,802,802,white,139,Default,no,psycho,psycho,psycho,0,139,1,4647,OSWeb experiment,uniform,0,0,0,0,16,,easy,0,0,0,4,0,16,,,16,,16,16,,0,4,0,4,16,,16,4,,Fri Mar 19 2021 09:26:39 GMT+0000 (Greenwich Mean Time),The main experiment item,yes,,/Users/hannahwindmill/Desktop/OneDrive/PhD/Teaching/experiments/Z4,no,mono,no,18,no,black,no,no,None,null,768,psycho,psycho,0w1cb,1,osweb,1.3.3,None,enter,n,0,,,n,,,enter,None,816,35148,2590,,,1410,,,1269,816,2,psycho,1.62E+12,Diamond.jpg,1024,2,48000,-16,experiment,139,6404,Experiment 2,4647,odd,4246,86,72518,,86,86,55,66622,,,69218,,74363,,2965,4245,73032,,73547,2965,New experiment,2,1,18452,23,yes,1024,6276
8,8,778,778,white,139,Default,no,psycho,psycho,psycho,0,139,1,4647,OSWeb experiment,uniform,1,0,0,0,17,,easy,0,0,0,4,0,17,,,17,,17,17,,0,4,0,4,17,,17,4,s,Fri Mar 19 2021 09:26:39 GMT+0000 (Greenwich Mean Time),The main experiment item,yes,,/Users/hannahwindmill/Desktop/OneDrive/PhD/Teaching/experiments/Z4,no,mono,no,18,no,black,no,no,None,null,768,psycho,psycho,0w1cb,1,osweb,1.3.3,s,enter,n,0,,,n,,,enter,s,211,35148,2590,,,1410,,,1269,211,2,psycho,1.62E+12,Square.jpg,1024,2,48000,-16,experiment,139,6404,Experiment 2,4647,odd,4246,86,74392,,86,86,55,66622,,,69218,,75628,,2965,4245,74896,,75413,2965,New experiment,2,2,18663,24,yes,1024,6276
8,8,779,779,white,139,Default,no,psycho,psycho,psycho,0,139,1,4647,OSWeb experiment,uniform,0,0,0,0,18,,easy,0,0,0,4,0,18,,,18,,18,18,,0,4,0,4,18,,18,4,,Fri Mar 19 2021 09:26:39 GMT+0000 (Greenwich Mean Time),The main experiment item,yes,,/Users/hannahwindmill/Desktop/OneDrive/PhD/Teaching/experiments/Z4,no,mono,no,18,no,black,no,no,None,null,768,psycho,psycho,0w1cb,1,osweb,1.3.3,None,enter,n,0,,,n,,,enter,None,816,35148,2590,,,1410,,,1269,816,2,psycho,1.62E+12,Star.jpg,1024,2,48000,-16,experiment,139,6404,Experiment 2,4647,odd,4246,86,75652,,86,86,55,66622,,,69218,,77493,,2965,4245,76163,,76677,2965,New experiment,2,2,19479,25,yes,1024,6276
8,8,781,781,white,139,Default,no,psycho,psycho,psycho,0,139,1,4647,OSWeb experiment,uniform,0,0,0,0,19,,easy,0,0,0,4,0,19,,,19,,19,19,,0,4,0,4,19,,19,4,,Fri Mar 19 2021 09:26:39 GMT+0000 (Greenwich Mean Time),The main experiment item,yes,,/Users/hannahwindmill/Desktop/OneDrive/PhD/Teaching/experiments/Z4,no,mono,no,18,no,black,no,no,None,null,768,psycho,psycho,0w1cb,1,osweb,1.3.3,None,enter,n,0,,,n,,,enter,None,816,35148,2590,,,1410,,,1269,816,2,psycho,1.62E+12,Triangle.jpg,1024,2,48000,-16,experiment,139,6404,Experiment 2,4647,odd,4246,86,77516,,86,86,55,66622,,,69218,,79359,,2965,4245,78027,,78542,2965,New experiment,2,2,20295,26,yes,1024,6276
7,7,782,782,white,139,Default,no,psycho,psycho,psycho,0,139,1,4647,OSWeb experiment,uniform,0,0,0,0,20,,easy,0,0,0,4,0,20,,,20,,20,20,,0,4,0,4,20,,20,4,,Fri Mar 19 2021 09:26:39 GMT+0000 (Greenwich Mean Time),The main experiment item,yes,,/Users/hannahwindmill/Desktop/OneDrive/PhD/Teaching/experiments/Z4,no,mono,no,18,no,black,no,no,None,null,768,psycho,psycho,0w1cb,1,osweb,1.3.3,None,enter,n,0,,,n,,,enter,None,816,35148,2590,,,1410,,,1269,816,2,psycho,1.62E+12,Circle.jpg,1024,2,48000,-16,experiment,139,6404,Experiment 2,4647,odd,4246,86,79385,,86,86,55,66622,,,69218,,81223,,2965,4245,79892,,80407,2965,New experiment,2,2,21111,27,yes,1024,6276
7,7,783,783,white,139,Default,no,psycho,psycho,psycho,0,139,1,4647,OSWeb experiment,uniform,0,0,0,0,21,,easy,0,0,0,4,0,21,,,21,,21,21,,0,4,0,4,21,,21,4,,Fri Mar 19 2021 09:26:39 GMT+0000 (Greenwich Mean Time),The main experiment item,yes,,/Users/hannahwindmill/Desktop/OneDrive/PhD/Teaching/experiments/Z4,no,mono,no,18,no,black,no,no,None,null,768,psycho,psycho,0w1cb,1,osweb,1.3.3,None,enter,n,0,,,n,,,enter,None,816,35148,2590,,,1410,,,1269,816,2,psycho,1.62E+12,Diamond.jpg,1024,2,48000,-16,experiment,139,6404,Experiment 2,4647,odd,4246,86,81247,,86,86,55,66622,,,69218,,83088,,2965,4245,81757,,82272,2965,New experiment,2,2,21927,28,yes,1024,6276
10,10,768,768,white,139,Default,no,psycho,psycho,psycho,0,139,1,4647,OSWeb experiment,uniform,1,0,0,0,22,,easy,0,0,0,4,0,22,,,22,,22,22,,0,4,0,4,22,,22,4,s,Fri Mar 19 2021 09:26:39 GMT+0000 (Greenwich Mean Time),The main experiment item,yes,,/Users/hannahwindmill/Desktop/OneDrive/PhD/Teaching/experiments/Z4,no,mono,no,18,no,black,no,no,None,null,768,psycho,psycho,0w1cb,1,osweb,1.3.3,s,enter,n,0,,,n,,,enter,s,340,35148,2590,,,1410,,,1269,340,2,psycho,1.62E+12,Square.jpg,1024,2,48000,-16,experiment,139,6404,Experiment 2,4647,odd,4246,86,83109,,86,86,55,66622,,,69218,,84487,,2965,4245,83622,,84137,2965,New experiment,2,3,22267,29,yes,1024,6276
10,10,769,769,white,139,Default,no,psycho,psycho,psycho,0,139,1,4647,OSWeb experiment,uniform,0,0,0,0,23,,easy,0,0,0,4,0,23,,,23,,23,23,,0,4,0,4,23,,23,4,,Fri Mar 19 2021 09:26:39 GMT+0000 (Greenwich Mean Time),The main experiment item,yes,,/Users/hannahwindmill/Desktop/OneDrive/PhD/Teaching/experiments/Z4,no,mono,no,18,no,black,no,no,None,null,768,psycho,psycho,0w1cb,1,osweb,1.3.3,None,enter,n,0,,,n,,,enter,None,801,35148,2590,,,1410,,,1269,801,2,psycho,1.62E+12,Star.jpg,1024,2,48000,-16,experiment,139,6404,Experiment 2,4647,odd,4246,86,84517,,86,86,55,66622,,,69218,,86338,,2965,4245,85020,,85536,2965,New experiment,2,3,23068,30,yes,1024,6276
10,10,770,770,white,139,Default,no,psycho,psycho,psycho,0,139,1,4647,OSWeb experiment,uniform,0,0,0,0,24,,easy,0,0,0,4,0,24,,,24,,24,24,,0,4,0,4,24,,24,4,,Fri Mar 19 2021 09:26:39 GMT+0000 (Greenwich Mean Time),The main experiment item,yes,,/Users/hannahwindmill/Desktop/OneDrive/PhD/Teaching/experiments/Z4,no,mono,no,18,no,black,no,no,None,null,768,psycho,psycho,0w1cb,1,osweb,1.3.3,None,enter,n,0,,,n,,,enter,None,815,35148,2590,,,1410,,,1269,815,2,psycho,1.62E+12,Triangle.jpg,1024,2,48000,-16,experiment,139,6404,Experiment 2,4647,odd,4246,86,86409,,86,86,55,66622,,,69218,,88250,,2965,4245,86918,,87434,2965,New experiment,2,3,23883,31,yes,1024,6276
9,9,772,772,white,139,Default,no,psycho,psycho,psycho,0,139,1,4647,OSWeb experiment,uniform,0,0,0,0,25,,easy,0,0,0,4,0,25,,,25,,25,25,,0,4,0,4,25,,25,4,,Fri Mar 19 2021 09:26:39 GMT+0000 (Greenwich Mean Time),The main experiment item,yes,,/Users/hannahwindmill/Desktop/OneDrive/PhD/Teaching/experiments/Z4,no,mono,no,18,no,black,no,no,None,null,768,psycho,psycho,0w1cb,1,osweb,1.3.3,None,enter,n,0,,,n,,,enter,None,815,35148,2590,,,1410,,,1269,815,2,psycho,1.62E+12,Circle.jpg,1024,2,48000,-16,experiment,139,6404,Experiment 2,4647,odd,4246,86,88275,,86,86,55,66622,,,69218,,90115,,2965,4245,88783,,89299,2965,New experiment,2,3,24698,32,yes,1024,6276
9,9,773,773,white,139,Default,no,psycho,psycho,psycho,0,139,1,4647,OSWeb experiment,uniform,0,0,0,0,26,,easy,0,0,0,4,0,26,,,26,,26,26,,0,4,0,4,26,,26,4,,Fri Mar 19 2021 09:26:39 GMT+0000 (Greenwich Mean Time),The main experiment item,yes,,/Users/hannahwindmill/Desktop/OneDrive/PhD/Teaching/experiments/Z4,no,mono,no,18,no,black,no,no,None,null,768,psycho,psycho,0w1cb,1,osweb,1.3.3,None,enter,n,0,,,n,,,enter,None,816,35148,2590,,,1410,,,1269,816,2,psycho,1.62E+12,Diamond.jpg,1024,2,48000,-16,experiment,139,6404,Experiment 2,4647,odd,4246,86,90170,,86,86,55,66622,,,69218,,92013,,2965,4245,90682,,91197,2965,New experiment,2,3,25514,33,yes,1024,6276
12,12,753,753,white,139,Default,no,psycho,psycho,psycho,0,139,1,4647,OSWeb experiment,uniform,1,0,0,0,27,,easy,0,0,0,4,0,27,,,27,,27,27,,0,4,0,4,27,,27,4,s,Fri Mar 19 2021 09:26:39 GMT+0000 (Greenwich Mean Time),The main experiment item,yes,,/Users/hannahwindmill/Desktop/OneDrive/PhD/Teaching/experiments/Z4,no,mono,no,18,no,black,no,no,None,null,768,psycho,psycho,0w1cb,1,osweb,1.3.3,s,enter,n,0,,,n,,,enter,s,104,35148,2590,,,1410,,,1269,104,2,psycho,1.62E+12,Square.jpg,1024,2,48000,-16,experiment,139,6404,Experiment 2,4647,odd,4246,86,92034,,86,86,55,66622,,,69218,,93179,,2965,4245,92546,,93062,2965,New experiment,2,4,25618,34,yes,1024,6276
11,11,755,755,white,139,Default,no,psycho,psycho,psycho,0,139,1,4647,OSWeb experiment,uniform,0,0,0,0,28,,easy,0,0,0,4,0,28,,,28,,28,28,,0,4,0,4,28,,28,4,,Fri Mar 19 2021 09:26:39 GMT+0000 (Greenwich Mean Time),The main experiment item,yes,,/Users/hannahwindmill/Desktop/OneDrive/PhD/Teaching/experiments/Z4,no,mono,no,18,no,black,no,no,None,null,768,psycho,psycho,0w1cb,1,osweb,1.3.3,None,enter,n,0,,,n,,,enter,None,815,35148,2590,,,1410,,,1269,815,2,psycho,1.62E+12,Star.jpg,1024,2,48000,-16,experiment,139,6404,Experiment 2,4647,odd,4246,86,93201,,86,86,55,66622,,,69218,,95043,,2965,4245,93713,,94228,2965,New experiment,2,4,26433,35,yes,1024,6276
11,11,778,778,white,139,Default,no,psycho,psycho,psycho,0,139,1,4647,OSWeb experiment,uniform,0,0,0,0,29,,easy,0,0,0,4,0,29,,,29,,29,29,,0,4,0,4,29,,29,4,,Fri Mar 19 2021 09:26:39 GMT+0000 (Greenwich Mean Time),The main experiment item,yes,,/Users/hannahwindmill/Desktop/OneDrive/PhD/Teaching/experiments/Z4,no,mono,no,18,no,black,no,no,None,null,768,psycho,psycho,0w1cb,1,osweb,1.3.3,n,enter,n,0,,,n,,,enter,None,1534,35148,2033,,,1534,,,1269,816,2,psycho,1.62E+12,Triangle.jpg,1024,2,48000,-16,experiment,139,6404,Experiment 2,4647,odd,4246,86,95065,,86,86,55,96910,,,98956,,100505,,2965,4245,95577,,96092,2965,New experiment,2,4,28783,37,yes,1024,6276
11,11,779,779,white,139,Default,no,psycho,psycho,psycho,0,139,1,4647,OSWeb experiment,uniform,0,0,0,0,30,,easy,0,0,0,4,0,30,,,30,,30,30,,0,4,0,4,30,,30,4,,Fri Mar 19 2021 09:26:39 GMT+0000 (Greenwich Mean Time),The main experiment item,yes,,/Users/hannahwindmill/Desktop/OneDrive/PhD/Teaching/experiments/Z4,no,mono,no,18,no,black,no,no,None,null,768,psycho,psycho,0w1cb,1,osweb,1.3.3,None,enter,n,0,,,n,,,enter,None,816,35148,2033,,,1534,,,1269,816,2,psycho,1.62E+12,Circle.jpg,1024,2,48000,-16,experiment,139,6404,Experiment 2,4647,odd,4246,86,100527,,86,86,55,96910,,,98956,,102370,,2965,4245,101039,,101554,2965,New experiment,2,4,29599,38,yes,1024,6276
10,10,780,780,white,139,Default,no,psycho,psycho,psycho,0,139,1,4647,OSWeb experiment,uniform,0,0,0,0,31,,easy,0,0,0,4,0,31,,,31,,31,31,,0,4,0,4,31,,31,4,,Fri Mar 19 2021 09:26:39 GMT+0000 (Greenwich Mean Time),The main experiment item,yes,,/Users/hannahwindmill/Desktop/OneDrive/PhD/Teaching/experiments/Z4,no,mono,no,18,no,black,no,no,None,null,768,psycho,psycho,0w1cb,1,osweb,1.3.3,None,enter,n,0,,,n,,,enter,None,815,35148,2033,,,1534,,,1269,815,2,psycho,1.62E+12,Diamond.jpg,1024,2,48000,-16,experiment,139,6404,Experiment 2,4647,odd,4246,86,102392,,86,86,55,96910,,,98956,,104235,,2965,4245,102903,,103419,2965,New experiment,2,4,30414,39,yes,1024,6276
13,13,767,767,white,139,Default,no,psycho,psycho,psycho,0,139,1,4647,OSWeb experiment,uniform,1,0,0,0,32,,easy,0,0,0,4,0,32,,,32,,32,32,,0,4,0,4,32,,32,4,s,Fri Mar 19 2021 09:26:39 GMT+0000 (Greenwich Mean Time),The main experiment item,yes,,/Users/hannahwindmill/Desktop/OneDrive/PhD/Teaching/experiments/Z4,no,mono,no,18,no,black,no,no,None,null,768,psycho,psycho,0w1cb,1,osweb,1.3.3,s,enter,n,0,,,n,,,enter,s,282,35148,2033,,,1534,,,1269,282,2,psycho,1.62E+12,Square.jpg,1024,2,48000,-16,experiment,139,6404,Experiment 2,4647,odd,4246,86,104255,,86,86,55,96910,,,98956,,105568,,2965,4245,104769,,105284,2965,New experiment,2,5,30696,40,yes,1024,6276
12,12,769,769,white,139,Default,no,psycho,psycho,psycho,0,139,1,4647,OSWeb experiment,uniform,0,0,0,0,33,,easy,0,0,0,4,0,33,,,33,,33,33,,0,4,0,4,33,,33,4,,Fri Mar 19 2021 09:26:39 GMT+0000 (Greenwich Mean Time),The main experiment item,yes,,/Users/hannahwindmill/Desktop/OneDrive/PhD/Teaching/experiments/Z4,no,mono,no,18,no,black,no,no,None,null,768,psycho,psycho,0w1cb,1,osweb,1.3.3,None,enter,n,0,,,n,,,enter,None,816,35148,2033,,,1534,,,1269,816,2,psycho,1.62E+12,Star.jpg,1024,2,48000,-16,experiment,139,6404,Experiment 2,4647,odd,4246,86,105596,,86,86,55,96910,,,98956,,107432,,2965,4245,106101,,106616,2965,New experiment,2,5,31512,41,yes,1024,6276
12,12,770,770,white,139,Default,no,psycho,psycho,psycho,0,139,1,4647,OSWeb experiment,uniform,0,0,0,0,34,,easy,0,0,0,4,0,34,,,34,,34,34,,0,4,0,4,34,,34,4,,Fri Mar 19 2021 09:26:39 GMT+0000 (Greenwich Mean Time),The main experiment item,yes,,/Users/hannahwindmill/Desktop/OneDrive/PhD/Teaching/experiments/Z4,no,mono,no,18,no,black,no,no,None,null,768,psycho,psycho,0w1cb,1,osweb,1.3.3,None,enter,n,0,,,n,,,enter,None,816,35148,2033,,,1534,,,1269,816,2,psycho,1.62E+12,Triangle.jpg,1024,2,48000,-16,experiment,139,6404,Experiment 2,4647,odd,4246,86,107456,,86,86,55,96910,,,98956,,109297,,2965,4245,107965,,108481,2965,New experiment,2,5,32328,42,yes,1024,6276
12,12,771,771,white,139,Default,no,psycho,psycho,psycho,0,139,1,4647,OSWeb experiment,uniform,0,0,0,0,35,,easy,0,0,0,4,0,35,,,35,,35,35,,0,4,0,4,35,,35,4,,Fri Mar 19 2021 09:26:39 GMT+0000 (Greenwich Mean Time),The main experiment item,yes,,/Users/hannahwindmill/Desktop/OneDrive/PhD/Teaching/experiments/Z4,no,mono,no,18,no,black,no,no,None,null,768,psycho,psycho,0w1cb,1,osweb,1.3.3,None,enter,n,0,,,n,,,enter,None,816,35148,2033,,,1534,,,1269,816,2,psycho,1.62E+12,Circle.jpg,1024,2,48000,-16,experiment,139,6404,Experiment 2,4647,odd,4246,86,109350,,86,86,55,96910,,,98956,,111195,,2965,4245,109864,,110379,2965,New experiment,2,5,33144,43,yes,1024,6276
11,11,772,772,white,139,Default,no,psycho,psycho,psycho,0,139,1,4647,OSWeb experiment,uniform,0,0,0,0,36,,easy,0,0,0,4,0,36,,,36,,36,36,,0,4,0,4,36,,36,4,,Fri Mar 19 2021 09:26:39 GMT+0000 (Greenwich Mean Time),The main experiment item,yes,,/Users/hannahwindmill/Desktop/OneDrive/PhD/Teaching/experiments/Z4,no,mono,no,18,no,black,no,no,None,null,768,psycho,psycho,0w1cb,1,osweb,1.3.3,None,enter,n,0,,,n,,,enter,None,816,35148,2033,,,1534,,,1269,816,2,psycho,1.62E+12,Diamond.jpg,1024,2,48000,-16,experiment,139,6404,Experiment 2,4647,odd,4246,86,111216,,86,86,55,96910,,,98956,,113060,,2965,4245,111728,,112244,2965,New experiment,2,5,33960,44,yes,1024,6276
13,13,758,758,white,139,Default,no,psycho,psycho,psycho,0,139,1,4647,OSWeb experiment,uniform,1,0,0,0,37,,easy,0,0,0,4,0,37,,,37,,37,37,,0,4,0,4,37,,37,4,s,Fri Mar 19 2021 09:26:39 GMT+0000 (Greenwich Mean Time),The main experiment item,yes,,/Users/hannahwindmill/Desktop/OneDrive/PhD/Teaching/experiments/Z4,no,mono,no,18,no,black,no,no,None,null,768,psycho,psycho,0w1cb,1,osweb,1.3.3,s,enter,n,0,,,n,,,enter,s,152,35148,2033,,,1534,,,1269,152,2,psycho,1.62E+12,Square.jpg,1024,2,48000,-16,experiment,139,6404,Experiment 2,4647,odd,4246,86,113081,,86,86,55,96910,,,98956,,114264,,2965,4245,113593,,114109,2965,New experiment,2,6,34112,45,yes,1024,6276
13,13,759,759,white,139,Default,no,psycho,psycho,psycho,0,139,1,4647,OSWeb experiment,uniform,0,0,0,0,38,,easy,0,0,0,4,0,38,,,38,,38,38,,0,4,0,4,38,,38,4,,Fri Mar 19 2021 09:26:39 GMT+0000 (Greenwich Mean Time),The main experiment item,yes,,/Users/hannahwindmill/Desktop/OneDrive/PhD/Teaching/experiments/Z4,no,mono,no,18,no,black,no,no,None,null,768,psycho,psycho,0w1cb,1,osweb,1.3.3,None,enter,n,0,,,n,,,enter,None,816,35148,2033,,,1534,,,1269,816,2,psycho,1.62E+12,Star.jpg,1024,2,48000,-16,experiment,139,6404,Experiment 2,4647,odd,4246,86,114296,,86,86,55,96910,,,98956,,116141,,2965,4245,114809,,115324,2965,New experiment,2,6,34928,46,yes,1024,6276
13,13,761,761,white,139,Default,no,psycho,psycho,psycho,0,139,1,4647,OSWeb experiment,uniform,0,0,0,0,39,,easy,0,0,0,4,0,39,,,39,,39,39,,0,4,0,4,39,,39,4,,Fri Mar 19 2021 09:26:39 GMT+0000 (Greenwich Mean Time),The main experiment item,yes,,/Users/hannahwindmill/Desktop/OneDrive/PhD/Teaching/experiments/Z4,no,mono,no,18,no,black,no,no,None,null,768,psycho,psycho,0w1cb,1,osweb,1.3.3,None,enter,n,0,,,n,,,enter,None,816,35148,2033,,,1534,,,1269,816,2,psycho,1.62E+12,Triangle.jpg,1024,2,48000,-16,experiment,139,6404,Experiment 2,4647,odd,4246,86,116165,,86,86,55,96910,,,98956,,118005,,2965,4245,116674,,117189,2965,New experiment,2,6,35744,47,yes,1024,6276
13,13,762,762,white,139,Default,no,psycho,psycho,psycho,0,139,1,4647,OSWeb experiment,uniform,0,0,0,0,40,,easy,0,0,0,4,0,40,,,40,,40,40,,0,4,0,4,40,,40,4,,Fri Mar 19 2021 09:26:39 GMT+0000 (Greenwich Mean Time),The main experiment item,yes,,/Users/hannahwindmill/Desktop/OneDrive/PhD/Teaching/experiments/Z4,no,mono,no,18,no,black,no,no,None,null,768,psycho,psycho,0w1cb,1,osweb,1.3.3,None,enter,n,0,,,n,,,enter,None,816,35148,2033,,,1534,,,1269,816,2,psycho,1.62E+12,Circle.jpg,1024,2,48000,-16,experiment,139,6404,Experiment 2,4647,odd,4246,86,118027,,86,86,55,96910,,,98956,,119870,,2965,4245,118539,,119054,2965,New experiment,2,6,36560,48,yes,1024,6276
12,12,763,763,white,139,Default,no,psycho,psycho,psycho,0,139,1,4647,OSWeb experiment,uniform,0,0,0,0,41,,easy,0,0,0,4,0,41,,,41,,41,41,,0,4,0,4,41,,41,4,,Fri Mar 19 2021 09:26:39 GMT+0000 (Greenwich Mean Time),The main experiment item,yes,,/Users/hannahwindmill/Desktop/OneDrive/PhD/Teaching/experiments/Z4,no,mono,no,18,no,black,no,no,None,null,768,psycho,psycho,0w1cb,1,osweb,1.3.3,None,enter,n,0,,,n,,,enter,None,816,35148,2033,,,1534,,,1269,816,2,psycho,1.62E+12,Diamond.jpg,1024,2,48000,-16,experiment,139,6404,Experiment 2,4647,odd,4246,86,119892,,86,86,55,96910,,,98956,,121735,,2965,4245,120403,,120919,2965,New experiment,2,6,37376,49,yes,1024,6276
14,14,749,749,white,139,Default,no,psycho,psycho,psycho,0,139,1,4647,OSWeb experiment,uniform,1,0,0,0,42,,easy,0,0,0,4,0,42,,,42,,42,42,,0,4,0,4,42,,42,4,s,Fri Mar 19 2021 09:26:39 GMT+0000 (Greenwich Mean Time),The main experiment item,yes,,/Users/hannahwindmill/Desktop/OneDrive/PhD/Teaching/experiments/Z4,no,mono,no,18,no,black,no,no,None,null,768,psycho,psycho,0w1cb,1,osweb,1.3.3,s,enter,n,0,,,n,,,enter,s,61,35148,2033,,,1534,,,1269,61,2,psycho,1.62E+12,Square.jpg,1024,2,48000,-16,experiment,139,6404,Experiment 2,4647,odd,4246,86,121762,,86,86,55,96910,,,98956,,122851,,2965,4245,122268,,122784,2965,New experiment,2,7,37437,50,yes,1024,6276
14,14,750,750,white,139,Default,no,psycho,psycho,psycho,0,139,1,4647,OSWeb experiment,uniform,0,0,0,0,43,,easy,0,0,0,4,0,43,,,43,,43,43,,0,4,0,4,43,,43,4,,Fri Mar 19 2021 09:26:39 GMT+0000 (Greenwich Mean Time),The main experiment item,yes,,/Users/hannahwindmill/Desktop/OneDrive/PhD/Teaching/experiments/Z4,no,mono,no,18,no,black,no,no,None,null,768,psycho,psycho,0w1cb,1,osweb,1.3.3,None,enter,n,0,,,n,,,enter,None,816,35148,2033,,,1534,,,1269,816,2,psycho,1.62E+12,Star.jpg,1024,2,48000,-16,experiment,139,6404,Experiment 2,4647,odd,4246,86,122873,,86,86,55,96910,,,98956,,124716,,2965,4245,123384,,123899,2965,New experiment,2,7,38253,51,yes,1024,6276
13,13,754,754,white,139,Default,no,psycho,psycho,psycho,0,139,1,4647,OSWeb experiment,uniform,0,0,0,0,44,,easy,0,0,0,4,0,44,,,44,,44,44,,0,4,0,4,44,,44,4,,Fri Mar 19 2021 09:26:39 GMT+0000 (Greenwich Mean Time),The main experiment item,yes,,/Users/hannahwindmill/Desktop/OneDrive/PhD/Teaching/experiments/Z4,no,mono,no,18,no,black,no,no,None,null,768,psycho,psycho,0w1cb,1,osweb,1.3.3,y,enter,y,1,,,y,,,enter,None,886,35148,1544,,,886,,,1269,816,2,psycho,1.62E+12,Triangle.jpg,1024,2,48000,-16,experiment,139,6404,Experiment 2,4647,odd,4246,86,124746,,86,86,55,126582,,,128129,,129028,,2965,4245,125249,,125764,2965,New experiment,2,7,39955,53,yes,1024,6276
13,13,755,755,white,139,Default,no,psycho,psycho,psycho,0,139,1,4647,OSWeb experiment,uniform,0,0,0,0,45,,easy,0,0,0,4,0,45,,,45,,45,45,,0,4,0,4,45,,45,4,,Fri Mar 19 2021 09:26:39 GMT+0000 (Greenwich Mean Time),The main experiment item,yes,,/Users/hannahwindmill/Desktop/OneDrive/PhD/Teaching/experiments/Z4,no,mono,no,18,no,black,no,no,None,null,768,psycho,psycho,0w1cb,1,osweb,1.3.3,None,enter,y,1,,,y,,,enter,None,816,35148,1544,,,886,,,1269,816,2,psycho,1.62E+12,Circle.jpg,1024,2,48000,-16,experiment,139,6404,Experiment 2,4647,odd,4246,86,129053,,86,86,55,126582,,,128129,,130893,,2965,4245,129563,,130077,2965,New experiment,2,7,40771,54,yes,1024,6276
13,13,756,756,white,139,Default,no,psycho,psycho,psycho,0,139,1,4647,OSWeb experiment,uniform,0,0,0,0,46,,easy,0,0,0,4,0,46,,,46,,46,46,,0,4,0,4,46,,46,4,,Fri Mar 19 2021 09:26:39 GMT+0000 (Greenwich Mean Time),The main experiment item,yes,,/Users/hannahwindmill/Desktop/OneDrive/PhD/Teaching/experiments/Z4,no,mono,no,18,no,black,no,no,None,null,768,psycho,psycho,0w1cb,1,osweb,1.3.3,None,enter,y,1,,,y,,,enter,None,816,35148,1544,,,886,,,1269,816,2,psycho,1.62E+12,Diamond.jpg,1024,2,48000,-16,experiment,139,6404,Experiment 2,4647,odd,4246,86,130950,,86,86,55,126582,,,128129,,132792,,2965,4245,131459,,131975,2965,New experiment,2,7,41587,55,yes,1024,6276
14,14,748,748,white,139,Default,no,psycho,psycho,psycho,0,139,1,4647,OSWeb experiment,uniform,1,0,0,0,47,,easy,0,0,0,4,0,47,,,47,,47,47,,0,4,0,4,47,,47,4,s,Fri Mar 19 2021 09:26:39 GMT+0000 (Greenwich Mean Time),The main experiment item,yes,,/Users/hannahwindmill/Desktop/OneDrive/PhD/Teaching/experiments/Z4,no,mono,no,18,no,black,no,no,None,null,768,psycho,psycho,0w1cb,1,osweb,1.3.3,s,enter,y,1,,,y,,,enter,s,297,35148,1544,,,886,,,1269,297,2,psycho,1.62E+12,Square.jpg,1024,2,48000,-16,experiment,139,6404,Experiment 2,4647,odd,4246,86,132816,,86,86,55,126582,,,128129,,134140,,2965,4245,133325,,133840,2965,New experiment,2,8,41884,56,yes,1024,6276
14,14,749,749,white,139,Default,no,psycho,psycho,psycho,0,139,1,4647,OSWeb experiment,uniform,0,0,0,0,48,,easy,0,0,0,4,0,48,,,48,,48,48,,0,4,0,4,48,,48,4,,Fri Mar 19 2021 09:26:39 GMT+0000 (Greenwich Mean Time),The main experiment item,yes,,/Users/hannahwindmill/Desktop/OneDrive/PhD/Teaching/experiments/Z4,no,mono,no,18,no,black,no,no,None,null,768,psycho,psycho,0w1cb,1,osweb,1.3.3,None,enter,y,1,,,y,,,enter,None,816,35148,1544,,,886,,,1269,816,2,psycho,1.62E+12,Star.jpg,1024,2,48000,-16,experiment,139,6404,Experiment 2,4647,odd,4246,86,134167,,86,86,55,126582,,,128129,,136005,,2965,4245,134673,,135189,2965,New experiment,2,8,42700,57,yes,1024,6276
14,14,750,750,white,139,Default,no,psycho,psycho,psycho,0,139,1,4647,OSWeb experiment,uniform,0,0,0,0,49,,easy,0,0,0,4,0,49,,,49,,49,49,,0,4,0,4,49,,49,4,,Fri Mar 19 2021 09:26:39 GMT+0000 (Greenwich Mean Time),The main experiment item,yes,,/Users/hannahwindmill/Desktop/OneDrive/PhD/Teaching/experiments/Z4,no,mono,no,18,no,black,no,no,None,null,768,psycho,psycho,0w1cb,1,osweb,1.3.3,None,enter,y,1,,,y,,,enter,None,816,35148,1544,,,886,,,1269,816,2,psycho,1.62E+12,Triangle.jpg,1024,2,48000,-16,experiment,139,6404,Experiment 2,4647,odd,4246,86,136042,,86,86,55,126582,,,128129,,137887,,2965,4245,136555,,137070,2965,New experiment,2,8,43516,58,yes,1024,6276
14,14,751,751,white,139,Default,no,psycho,psycho,psycho,0,139,1,4647,OSWeb experiment,uniform,0,0,0,0,50,,easy,0,0,0,4,0,50,,,50,,50,50,,0,4,0,4,50,,50,4,,Fri Mar 19 2021 09:26:39 GMT+0000 (Greenwich Mean Time),The main experiment item,yes,,/Users/hannahwindmill/Desktop/OneDrive/PhD/Teaching/experiments/Z4,no,mono,no,18,no,black,no,no,None,null,768,psycho,psycho,0w1cb,1,osweb,1.3.3,None,enter,y,1,,,y,,,enter,None,816,35148,1544,,,886,,,1269,816,2,psycho,1.62E+12,Circle.jpg,1024,2,48000,-16,experiment,139,6404,Experiment 2,4647,odd,4246,86,137913,,86,86,55,126582,,,128129,,139752,,2965,4245,138419,,138935,2965,New experiment,2,8,44332,59,yes,1024,6276
13,13,752,752,white,139,Default,no,psycho,psycho,psycho,0,139,1,4647,OSWeb experiment,uniform,0,0,0,0,51,,easy,0,0,0,4,0,51,,,51,,51,51,,0,4,0,4,51,,51,4,,Fri Mar 19 2021 09:26:39 GMT+0000 (Greenwich Mean Time),The main experiment item,yes,,/Users/hannahwindmill/Desktop/OneDrive/PhD/Teaching/experiments/Z4,no,mono,no,18,no,black,no,no,None,null,768,psycho,psycho,0w1cb,1,osweb,1.3.3,None,enter,y,1,,,y,,,enter,None,816,35148,1544,,,886,,,1269,816,2,psycho,1.62E+12,Diamond.jpg,1024,2,48000,-16,experiment,139,6404,Experiment 2,4647,odd,4246,86,139772,,86,86,55,126582,,,128129,,141616,,2965,4245,140285,,140800,2965,New experiment,2,8,45148,60,yes,1024,6276
15,15,742,742,white,139,Default,no,psycho,psycho,psycho,0,139,1,4647,OSWeb experiment,uniform,1,0,0,0,52,,easy,0,0,0,4,0,52,,,52,,52,52,,0,4,0,4,52,,52,4,s,Fri Mar 19 2021 09:26:39 GMT+0000 (Greenwich Mean Time),The main experiment item,yes,,/Users/hannahwindmill/Desktop/OneDrive/PhD/Teaching/experiments/Z4,no,mono,no,18,no,black,no,no,None,null,768,psycho,psycho,0w1cb,1,osweb,1.3.3,s,enter,y,1,,,y,,,enter,s,104,35148,1544,,,886,,,1269,104,2,psycho,1.62E+12,Square.jpg,1024,2,48000,-16,experiment,139,6404,Experiment 2,4647,odd,4246,86,141640,,86,86,55,126582,,,128129,,142782,,2965,4245,142149,,142665,2965,New experiment,2,9,45252,61,yes,1024,6276
15,15,743,743,white,139,Default,no,psycho,psycho,psycho,0,139,1,4647,OSWeb experiment,uniform,0,0,0,0,53,,easy,0,0,0,4,0,53,,,53,,53,53,,0,4,0,4,53,,53,4,,Fri Mar 19 2021 09:26:39 GMT+0000 (Greenwich Mean Time),The main experiment item,yes,,/Users/hannahwindmill/Desktop/OneDrive/PhD/Teaching/experiments/Z4,no,mono,no,18,no,black,no,no,None,null,768,psycho,psycho,0w1cb,1,osweb,1.3.3,None,enter,y,1,,,y,,,enter,None,815,35148,1544,,,886,,,1269,815,2,psycho,1.62E+12,Star.jpg,1024,2,48000,-16,experiment,139,6404,Experiment 2,4647,odd,4246,86,142802,,86,86,55,126582,,,128129,,144647,,2965,4245,143315,,143831,2965,New experiment,2,9,46067,62,yes,1024,6276
14,14,744,744,white,139,Default,no,psycho,psycho,psycho,0,139,1,4647,OSWeb experiment,uniform,0,0,0,0,54,,easy,0,0,0,4,0,54,,,54,,54,54,,0,4,0,4,54,,54,4,,Fri Mar 19 2021 09:26:39 GMT+0000 (Greenwich Mean Time),The main experiment item,yes,,/Users/hannahwindmill/Desktop/OneDrive/PhD/Teaching/experiments/Z4,no,mono,no,18,no,black,no,no,None,null,768,psycho,psycho,0w1cb,1,osweb,1.3.3,None,enter,y,1,,,y,,,enter,None,816,35148,1544,,,886,,,1269,816,2,psycho,1.62E+12,Triangle.jpg,1024,2,48000,-16,experiment,139,6404,Experiment 2,4647,odd,4246,86,144673,,86,86,55,126582,,,128129,,146512,,2965,4245,145181,,145695,2965,New experiment,2,9,46883,63,yes,1024,6276
14,14,745,745,white,139,Default,no,psycho,psycho,psycho,0,139,1,4647,OSWeb experiment,uniform,0,0,0,0,55,,easy,0,0,0,4,0,55,,,55,,55,55,,0,4,0,4,55,,55,4,,Fri Mar 19 2021 09:26:39 GMT+0000 (Greenwich Mean Time),The main experiment item,yes,,/Users/hannahwindmill/Desktop/OneDrive/PhD/Teaching/experiments/Z4,no,mono,no,18,no,black,no,no,None,null,768,psycho,psycho,0w1cb,1,osweb,1.3.3,None,enter,y,1,,,y,,,enter,None,816,35148,1544,,,886,,,1269,816,2,psycho,1.62E+12,Circle.jpg,1024,2,48000,-16,experiment,139,6404,Experiment 2,4647,odd,4246,86,146594,,86,86,55,126582,,,128129,,148444,,2965,4245,147112,,147627,2965,New experiment,2,9,47699,64,yes,1024,6276
14,14,746,746,white,139,Default,no,psycho,psycho,psycho,0,139,1,4647,OSWeb experiment,uniform,0,0,0,0,56,,easy,0,0,0,4,0,56,,,56,,56,56,,0,4,0,4,56,,56,4,,Fri Mar 19 2021 09:26:39 GMT+0000 (Greenwich Mean Time),The main experiment item,yes,,/Users/hannahwindmill/Desktop/OneDrive/PhD/Teaching/experiments/Z4,no,mono,no,18,no,black,no,no,None,null,768,psycho,psycho,0w1cb,1,osweb,1.3.3,None,enter,y,1,,,y,,,enter,None,816,35148,1544,,,886,,,1269,816,2,psycho,1.62E+12,Diamond.jpg,1024,2,48000,-16,experiment,139,6404,Experiment 2,4647,odd,4246,86,148466,,86,86,55,126582,,,128129,,150308,,2965,4245,148976,,149492,2965,New experiment,2,9,48515,65,yes,1024,6276
15,15,737,737,white,139,Default,no,psycho,psycho,psycho,0,139,1,4647,OSWeb experiment,uniform,1,0,0,0,57,,easy,0,0,0,4,0,57,,,57,,57,57,,0,4,0,4,57,,57,4,s,Fri Mar 19 2021 09:26:39 GMT+0000 (Greenwich Mean Time),The main experiment item,yes,,/Users/hannahwindmill/Desktop/OneDrive/PhD/Teaching/experiments/Z4,no,mono,no,18,no,black,no,no,None,null,768,psycho,psycho,0w1cb,1,osweb,1.3.3,s,enter,y,1,,,y,,,enter,s,106,35148,1544,,,886,,,1269,106,2,psycho,1.62E+12,Square.jpg,1024,2,48000,-16,experiment,139,6404,Experiment 2,4647,odd,4246,86,150332,,86,86,55,126582,,,128129,,151474,,2965,4245,150842,,151357,2965,New experiment,2,10,48621,66,yes,1024,6276
15,15,738,738,white,139,Default,no,psycho,psycho,psycho,0,139,1,4647,OSWeb experiment,uniform,0,0,0,0,58,,easy,0,0,0,4,0,58,,,58,,58,58,,0,4,0,4,58,,58,4,,Fri Mar 19 2021 09:26:39 GMT+0000 (Greenwich Mean Time),The main experiment item,yes,,/Users/hannahwindmill/Desktop/OneDrive/PhD/Teaching/experiments/Z4,no,mono,no,18,no,black,no,no,None,null,768,psycho,psycho,0w1cb,1,osweb,1.3.3,None,enter,y,1,,,y,,,enter,None,816,35148,1544,,,886,,,1269,816,2,psycho,1.62E+12,Star.jpg,1024,2,48000,-16,experiment,139,6404,Experiment 2,4647,odd,4246,86,151498,,86,86,55,126582,,,128129,,153339,,2965,4245,152007,,152522,2965,New experiment,2,10,49437,67,yes,1024,6276
14,14,739,739,white,139,Default,no,psycho,psycho,psycho,0,139,1,4647,OSWeb experiment,uniform,0,0,0,0,59,,easy,0,0,0,4,0,59,,,59,,59,59,,0,4,0,4,59,,59,4,,Fri Mar 19 2021 09:26:39 GMT+0000 (Greenwich Mean Time),The main experiment item,yes,,/Users/hannahwindmill/Desktop/OneDrive/PhD/Teaching/experiments/Z4,no,mono,no,18,no,black,no,no,None,null,768,psycho,psycho,0w1cb,1,osweb,1.3.3,y,enter,y,1,,,y,,,enter,None,707,35148,1554,,,707,,,1269,816,2,psycho,1.62E+12,Triangle.jpg,1024,2,48000,-16,experiment,139,6404,Experiment 2,4647,odd,4246,86,153361,,86,86,55,155205,,,156769,,157484,,2965,4245,153872,,154387,2965,New experiment,2,10,50960,69,yes,1024,6276
14,14,740,740,white,139,Default,no,psycho,psycho,psycho,0,139,1,4647,OSWeb experiment,uniform,0,0,0,0,60,,easy,0,0,0,4,0,60,,,60,,60,60,,0,4,0,4,60,,60,4,,Fri Mar 19 2021 09:26:39 GMT+0000 (Greenwich Mean Time),The main experiment item,yes,,/Users/hannahwindmill/Desktop/OneDrive/PhD/Teaching/experiments/Z4,no,mono,no,18,no,black,no,no,None,null,768,psycho,psycho,0w1cb,1,osweb,1.3.3,None,enter,y,1,,,y,,,enter,None,816,35148,1554,,,707,,,1269,816,2,psycho,1.62E+12,Circle.jpg,1024,2,48000,-16,experiment,139,6404,Experiment 2,4647,odd,4246,86,157505,,86,86,55,155205,,,156769,,159350,,2965,4245,158018,,158533,2965,New experiment,2,10,51776,70,yes,1024,6276
14,14,741,741,white,139,Default,no,psycho,psycho,psycho,0,139,1,4647,OSWeb experiment,uniform,0,0,0,0,61,,easy,0,0,0,4,0,61,,,61,,61,61,,0,4,0,4,61,,61,4,,Fri Mar 19 2021 09:26:39 GMT+0000 (Greenwich Mean Time),The main experiment item,yes,,/Users/hannahwindmill/Desktop/OneDrive/PhD/Teaching/experiments/Z4,no,mono,no,18,no,black,no,no,None,null,768,psycho,psycho,0w1cb,1,osweb,1.3.3,None,enter,y,1,,,y,,,enter,None,815,35148,1554,,,707,,,1269,815,2,psycho,1.62E+12,Diamond.jpg,1024,2,48000,-16,experiment,139,6404,Experiment 2,4647,odd,4246,86,159370,,86,86,55,155205,,,156769,,161215,,2965,4245,159883,,160399,2965,New experiment,2,10,52591,71,yes,1024,6276
15,15,734,734,white,139,Default,no,psycho,psycho,psycho,0,139,1,4647,OSWeb experiment,uniform,1,0,0,0,62,,easy,0,0,0,4,0,62,,,62,,62,62,,0,4,0,4,62,,62,4,s,Fri Mar 19 2021 09:26:39 GMT+0000 (Greenwich Mean Time),The main experiment item,yes,,/Users/hannahwindmill/Desktop/OneDrive/PhD/Teaching/experiments/Z4,no,mono,no,18,no,black,no,no,None,null,768,psycho,psycho,0w1cb,1,osweb,1.3.3,s,enter,y,1,,,y,,,enter,s,260,35148,1554,,,707,,,1269,260,2,psycho,1.62E+12,Square.jpg,1024,2,48000,-16,experiment,139,6404,Experiment 2,4647,odd,4246,86,161246,,86,86,55,155205,,,156769,,162530,,2965,4245,161748,,162263,2965,New experiment,2,11,52851,72,yes,1024,6276
15,15,735,735,white,139,Default,no,psycho,psycho,psycho,0,139,1,4647,OSWeb experiment,uniform,0,0,0,0,63,,easy,0,0,0,4,0,63,,,63,,63,63,,0,4,0,4,63,,63,4,,Fri Mar 19 2021 09:26:39 GMT+0000 (Greenwich Mean Time),The main experiment item,yes,,/Users/hannahwindmill/Desktop/OneDrive/PhD/Teaching/experiments/Z4,no,mono,no,18,no,black,no,no,None,null,768,psycho,psycho,0w1cb,1,osweb,1.3.3,None,enter,y,1,,,y,,,enter,None,816,35148,1554,,,707,,,1269,816,2,psycho,1.62E+12,Star.jpg,1024,2,48000,-16,experiment,139,6404,Experiment 2,4647,odd,4246,86,162583,,86,86,55,155205,,,156769,,164429,,2965,4245,163097,,163612,2965,New experiment,2,11,53667,73,yes,1024,6276
15,15,736,736,white,139,Default,no,psycho,psycho,psycho,0,139,1,4647,OSWeb experiment,uniform,0,0,0,0,64,,easy,0,0,0,4,0,64,,,64,,64,64,,0,4,0,4,64,,64,4,,Fri Mar 19 2021 09:26:39 GMT+0000 (Greenwich Mean Time),The main experiment item,yes,,/Users/hannahwindmill/Desktop/OneDrive/PhD/Teaching/experiments/Z4,no,mono,no,18,no,black,no,no,None,null,768,psycho,psycho,0w1cb,1,osweb,1.3.3,None,enter,y,1,,,y,,,enter,None,816,35148,1554,,,707,,,1269,816,2,psycho,1.62E+12,Triangle.jpg,1024,2,48000,-16,experiment,139,6404,Experiment 2,4647,odd,4246,86,164455,,86,86,55,155205,,,156769,,166293,,2965,4245,164962,,165477,2965,New experiment,2,11,54483,74,yes,1024,6276
15,15,737,737,white,139,Default,no,psycho,psycho,psycho,0,139,1,4647,OSWeb experiment,uniform,0,0,0,0,65,,easy,0,0,0,4,0,65,,,65,,65,65,,0,4,0,4,65,,65,4,,Fri Mar 19 2021 09:26:39 GMT+0000 (Greenwich Mean Time),The main experiment item,yes,,/Users/hannahwindmill/Desktop/OneDrive/PhD/Teaching/experiments/Z4,no,mono,no,18,no,black,no,no,None,null,768,psycho,psycho,0w1cb,1,osweb,1.3.3,None,enter,y,1,,,y,,,enter,None,816,35148,1554,,,707,,,1269,816,2,psycho,1.62E+12,Circle.jpg,1024,2,48000,-16,experiment,139,6404,Experiment 2,4647,odd,4246,86,166314,,86,86,55,155205,,,156769,,168158,,2965,4245,166826,,167342,2965,New experiment,2,11,55299,75,yes,1024,6276
14,14,738,738,white,139,Default,no,psycho,psycho,psycho,0,139,1,4647,OSWeb experiment,uniform,0,0,0,0,66,,easy,0,0,0,4,0,66,,,66,,66,66,,0,4,0,4,66,,66,4,,Fri Mar 19 2021 09:26:39 GMT+0000 (Greenwich Mean Time),The main experiment item,yes,,/Users/hannahwindmill/Desktop/OneDrive/PhD/Teaching/experiments/Z4,no,mono,no,18,no,black,no,no,None,null,768,psycho,psycho,0w1cb,1,osweb,1.3.3,None,enter,y,1,,,y,,,enter,None,815,35148,1554,,,707,,,1269,815,2,psycho,1.62E+12,Diamond.jpg,1024,2,48000,-16,experiment,139,6404,Experiment 2,4647,odd,4246,86,168184,,86,86,55,155205,,,156769,,170026,,2965,4245,168693,,169207,2965,New experiment,2,11,56114,76,yes,1024,6276
16,16,730,730,white,139,Default,no,psycho,psycho,psycho,0,139,1,4647,OSWeb experiment,uniform,1,0,0,0,67,,easy,0,0,0,4,0,67,,,67,,67,67,,0,4,0,4,67,,67,4,s,Fri Mar 19 2021 09:26:39 GMT+0000 (Greenwich Mean Time),The main experiment item,yes,,/Users/hannahwindmill/Desktop/OneDrive/PhD/Teaching/experiments/Z4,no,mono,no,18,no,black,no,no,None,null,768,psycho,psycho,0w1cb,1,osweb,1.3.3,s,enter,y,1,,,y,,,enter,s,119,35148,1554,,,707,,,1269,119,2,psycho,1.62E+12,Square.jpg,1024,2,48000,-16,experiment,139,6404,Experiment 2,4647,odd,4246,86,170049,,86,86,55,155205,,,156769,,171205,,2965,4245,170556,,171072,2965,New experiment,2,12,56233,77,yes,1024,6276
15,15,731,731,white,139,Default,no,psycho,psycho,psycho,0,139,1,4647,OSWeb experiment,uniform,0,0,0,0,68,,easy,0,0,0,4,0,68,,,68,,68,68,,0,4,0,4,68,,68,4,,Fri Mar 19 2021 09:26:39 GMT+0000 (Greenwich Mean Time),The main experiment item,yes,,/Users/hannahwindmill/Desktop/OneDrive/PhD/Teaching/experiments/Z4,no,mono,no,18,no,black,no,no,None,null,768,psycho,psycho,0w1cb,1,osweb,1.3.3,None,enter,y,1,,,y,,,enter,None,816,35148,1554,,,707,,,1269,816,2,psycho,1.62E+12,Star.jpg,1024,2,48000,-16,experiment,139,6404,Experiment 2,4647,odd,4246,86,171226,,86,86,55,155205,,,156769,,173070,,2965,4245,171738,,172254,2965,New experiment,2,12,57049,78,yes,1024,6276
15,15,732,732,white,139,Default,no,psycho,psycho,psycho,0,139,1,4647,OSWeb experiment,uniform,0,0,0,0,69,,easy,0,0,0,4,0,69,,,69,,69,69,,0,4,0,4,69,,69,4,,Fri Mar 19 2021 09:26:39 GMT+0000 (Greenwich Mean Time),The main experiment item,yes,,/Users/hannahwindmill/Desktop/OneDrive/PhD/Teaching/experiments/Z4,no,mono,no,18,no,black,no,no,None,null,768,psycho,psycho,0w1cb,1,osweb,1.3.3,None,enter,y,1,,,y,,,enter,None,816,35148,1554,,,707,,,1269,816,2,psycho,1.62E+12,Triangle.jpg,1024,2,48000,-16,experiment,139,6404,Experiment 2,4647,odd,4246,86,173096,,86,86,55,155205,,,156769,,174935,,2965,4245,173604,,174119,2965,New experiment,2,12,57865,79,yes,1024,6276
15,15,734,734,white,139,Default,no,psycho,psycho,psycho,0,139,1,4647,OSWeb experiment,uniform,0,0,0,0,70,,easy,0,0,0,4,0,70,,,70,,70,70,,0,4,0,4,70,,70,4,,Fri Mar 19 2021 09:26:39 GMT+0000 (Greenwich Mean Time),The main experiment item,yes,,/Users/hannahwindmill/Desktop/OneDrive/PhD/Teaching/experiments/Z4,no,mono,no,18,no,black,no,no,None,null,768,psycho,psycho,0w1cb,1,osweb,1.3.3,None,enter,y,1,,,y,,,enter,None,815,35148,1554,,,707,,,1269,815,2,psycho,1.62E+12,Circle.jpg,1024,2,48000,-16,experiment,139,6404,Experiment 2,4647,odd,4246,86,174955,,86,86,55,155205,,,156769,,176800,,2965,4245,175469,,175984,2965,New experiment,2,12,58680,80,yes,1024,6276
15,15,735,735,white,139,Default,no,psycho,psycho,psycho,0,139,1,4647,OSWeb experiment,uniform,0,0,0,0,71,,easy,0,0,0,4,0,71,,,71,,71,71,,0,4,0,4,71,,71,4,,Fri Mar 19 2021 09:26:39 GMT+0000 (Greenwich Mean Time),The main experiment item,yes,,/Users/hannahwindmill/Desktop/OneDrive/PhD/Teaching/experiments/Z4,no,mono,no,18,no,black,no,no,None,null,768,psycho,psycho,0w1cb,1,osweb,1.3.3,None,enter,y,1,,,y,,,enter,None,816,35148,1554,,,707,,,1269,816,2,psycho,1.62E+12,Diamond.jpg,1024,2,48000,-16,experiment,139,6404,Experiment 2,4647,odd,4246,86,176823,,86,86,55,155205,,,156769,,178665,,2965,4245,177333,,177849,2965,New experiment,2,12,59496,81,yes,1024,6276
16,16,727,727,white,139,Default,no,psycho,psycho,psycho,0,139,1,4647,OSWeb experiment,uniform,1,0,0,0,72,,easy,0,0,0,4,0,72,,,72,,72,72,,0,4,0,4,72,,72,4,s,Fri Mar 19 2021 09:26:39 GMT+0000 (Greenwich Mean Time),The main experiment item,yes,,/Users/hannahwindmill/Desktop/OneDrive/PhD/Teaching/experiments/Z4,no,mono,no,18,no,black,no,no,None,null,768,psycho,psycho,0w1cb,1,osweb,1.3.3,s,enter,y,1,,,y,,,enter,s,115,35148,1554,,,707,,,1269,115,2,psycho,1.62E+12,Square.jpg,1024,2,48000,-16,experiment,139,6404,Experiment 2,4647,odd,4246,86,178686,,86,86,55,155205,,,156769,,179830,,2965,4245,179198,,179714,2965,New experiment,2,13,59611,82,yes,1024,6276
16,16,728,728,white,139,Default,no,psycho,psycho,psycho,0,139,1,4647,OSWeb experiment,uniform,0,0,0,0,73,,easy,0,0,0,4,0,73,,,73,,73,73,,0,4,0,4,73,,73,4,,Fri Mar 19 2021 09:26:39 GMT+0000 (Greenwich Mean Time),The main experiment item,yes,,/Users/hannahwindmill/Desktop/OneDrive/PhD/Teaching/experiments/Z4,no,mono,no,18,no,black,no,no,None,null,768,psycho,psycho,0w1cb,1,osweb,1.3.3,None,enter,y,1,,,y,,,enter,None,816,35148,1554,,,707,,,1269,816,2,psycho,1.62E+12,Star.jpg,1024,2,48000,-16,experiment,139,6404,Experiment 2,4647,odd,4246,86,179853,,86,86,55,155205,,,156769,,181696,,2965,4245,180364,,180879,2965,New experiment,2,13,60427,83,yes,1024,6276
15,15,726,726,white,139,Default,no,psycho,psycho,psycho,0,139,1,4647,OSWeb experiment,uniform,0,0,0,0,74,,easy,0,0,0,4,0,74,,,74,,74,74,,0,4,0,4,74,,74,4,,Fri Mar 19 2021 09:26:39 GMT+0000 (Greenwich Mean Time),The main experiment item,yes,,/Users/hannahwindmill/Desktop/OneDrive/PhD/Teaching/experiments/Z4,no,mono,no,18,no,black,no,no,None,null,768,psycho,psycho,0w1cb,1,osweb,1.3.3,y,enter,y,1,,,y,,,enter,None,463,35148,1241,,,463,,,1269,816,2,psycho,1.62E+12,Triangle.jpg,1024,2,48000,-16,experiment,139,6404,Experiment 2,4647,odd,4246,86,181718,,86,86,55,183562,,,184809,,185275,,2965,4245,182228,,182744,2965,New experiment,2,13,61706,85,yes,1024,6276
15,15,727,727,white,139,Default,no,psycho,psycho,psycho,0,139,1,4647,OSWeb experiment,uniform,0,0,0,0,75,,easy,0,0,0,4,0,75,,,75,,75,75,,0,4,0,4,75,,75,4,,Fri Mar 19 2021 09:26:39 GMT+0000 (Greenwich Mean Time),The main experiment item,yes,,/Users/hannahwindmill/Desktop/OneDrive/PhD/Teaching/experiments/Z4,no,mono,no,18,no,black,no,no,None,null,768,psycho,psycho,0w1cb,1,osweb,1.3.3,None,enter,y,1,,,y,,,enter,None,816,35148,1241,,,463,,,1269,816,2,psycho,1.62E+12,Circle.jpg,1024,2,48000,-16,experiment,139,6404,Experiment 2,4647,odd,4246,86,185297,,86,86,55,183562,,,184809,,187140,,2965,4245,185809,,186324,2965,New experiment,2,13,62522,86,yes,1024,6276
15,15,728,728,white,139,Default,no,psycho,psycho,psycho,0,139,1,4647,OSWeb experiment,uniform,0,0,0,0,76,,easy,0,0,0,4,0,76,,,76,,76,76,,0,4,0,4,76,,76,4,,Fri Mar 19 2021 09:26:39 GMT+0000 (Greenwich Mean Time),The main experiment item,yes,,/Users/hannahwindmill/Desktop/OneDrive/PhD/Teaching/experiments/Z4,no,mono,no,18,no,black,no,no,None,null,768,psycho,psycho,0w1cb,1,osweb,1.3.3,None,enter,y,1,,,y,,,enter,None,816,35148,1241,,,463,,,1269,816,2,psycho,1.62E+12,Diamond.jpg,1024,2,48000,-16,experiment,139,6404,Experiment 2,4647,odd,4246,86,187159,,86,86,55,183562,,,184809,,189005,,2965,4245,187673,,188189,2965,New experiment,2,13,63338,87,yes,1024,6276
16,16,721,721,white,139,Default,no,psycho,psycho,psycho,0,139,1,4647,OSWeb experiment,uniform,1,0,0,0,77,,easy,0,0,0,4,0,77,,,77,,77,77,,0,4,0,4,77,,77,4,s,Fri Mar 19 2021 09:26:39 GMT+0000 (Greenwich Mean Time),The main experiment item,yes,,/Users/hannahwindmill/Desktop/OneDrive/PhD/Teaching/experiments/Z4,no,mono,no,18,no,black,no,no,None,null,768,psycho,psycho,0w1cb,1,osweb,1.3.3,s,enter,y,1,,,y,,,enter,s,149,35148,1241,,,463,,,1269,149,2,psycho,1.62E+12,Square.jpg,1024,2,48000,-16,experiment,139,6404,Experiment 2,4647,odd,4246,86,189025,,86,86,55,183562,,,184809,,190204,,2965,4245,189539,,190054,2965,New experiment,2,14,63487,88,yes,1024,6276
16,16,723,723,white,139,Default,no,psycho,psycho,psycho,0,139,1,4647,OSWeb experiment,uniform,0,0,0,0,78,,easy,0,0,0,4,0,78,,,78,,78,78,,0,4,0,4,78,,78,4,,Fri Mar 19 2021 09:26:39 GMT+0000 (Greenwich Mean Time),The main experiment item,yes,,/Users/hannahwindmill/Desktop/OneDrive/PhD/Teaching/experiments/Z4,no,mono,no,18,no,black,no,no,None,null,768,psycho,psycho,0w1cb,1,osweb,1.3.3,None,enter,y,1,,,y,,,enter,None,816,35148,1241,,,463,,,1269,816,2,psycho,1.62E+12,Star.jpg,1024,2,48000,-16,experiment,139,6404,Experiment 2,4647,odd,4246,86,190219,,86,86,55,183562,,,184809,,192052,,2965,4245,190721,,191236,2965,New experiment,2,14,64303,89,yes,1024,6276
16,16,724,724,white,139,Default,no,psycho,psycho,psycho,0,139,1,4647,OSWeb experiment,uniform,0,0,0,0,79,,easy,0,0,0,4,0,79,,,79,,79,79,,0,4,0,4,79,,79,4,,Fri Mar 19 2021 09:26:39 GMT+0000 (Greenwich Mean Time),The main experiment item,yes,,/Users/hannahwindmill/Desktop/OneDrive/PhD/Teaching/experiments/Z4,no,mono,no,18,no,black,no,no,None,null,768,psycho,psycho,0w1cb,1,osweb,1.3.3,None,enter,y,1,,,y,,,enter,None,816,35148,1241,,,463,,,1269,816,2,psycho,1.62E+12,Triangle.jpg,1024,2,48000,-16,experiment,139,6404,Experiment 2,4647,odd,4246,86,192073,,86,86,55,183562,,,184809,,193917,,2965,4245,192585,,193101,2965,New experiment,2,14,65119,90,yes,1024,6276
15,15,725,725,white,139,Default,no,psycho,psycho,psycho,0,139,1,4647,OSWeb experiment,uniform,0,0,0,0,80,,easy,0,0,0,4,0,80,,,80,,80,80,,0,4,0,4,80,,80,4,,Fri Mar 19 2021 09:26:39 GMT+0000 (Greenwich Mean Time),The main experiment item,yes,,/Users/hannahwindmill/Desktop/OneDrive/PhD/Teaching/experiments/Z4,no,mono,no,18,no,black,no,no,None,null,768,psycho,psycho,0w1cb,1,osweb,1.3.3,None,enter,y,1,,,y,,,enter,None,816,35148,1241,,,463,,,1269,816,2,psycho,1.62E+12,Circle.jpg,1024,2,48000,-16,experiment,139,6404,Experiment 2,4647,odd,4246,86,193949,,86,86,55,183562,,,184809,,195782,,2965,4245,194451,,194966,2965,New experiment,2,14,65935,91,yes,1024,6276
15,15,726,726,white,139,Default,no,psycho,psycho,psycho,0,139,1,4647,OSWeb experiment,uniform,0,0,0,0,81,,easy,0,0,0,4,0,81,,,81,,81,81,,0,4,0,4,81,,81,4,,Fri Mar 19 2021 09:26:39 GMT+0000 (Greenwich Mean Time),The main experiment item,yes,,/Users/hannahwindmill/Desktop/OneDrive/PhD/Teaching/experiments/Z4,no,mono,no,18,no,black,no,no,None,null,768,psycho,psycho,0w1cb,1,osweb,1.3.3,None,enter,y,1,,,y,,,enter,None,816,35148,1241,,,463,,,1269,816,2,psycho,1.62E+12,Diamond.jpg,1024,2,48000,-16,experiment,139,6404,Experiment 2,4647,odd,4246,86,195816,,86,86,55,183562,,,184809,,197664,,2965,4245,196332,,196848,2965,New experiment,2,14,66751,92,yes,1024,6276
16,16,718,718,white,139,Default,no,psycho,psycho,psycho,0,139,1,4647,OSWeb experiment,uniform,1,0,0,0,82,,easy,0,0,0,4,0,82,,,82,,82,82,,0,4,0,4,82,,82,4,s,Fri Mar 19 2021 09:26:39 GMT+0000 (Greenwich Mean Time),The main experiment item,yes,,/Users/hannahwindmill/Desktop/OneDrive/PhD/Teaching/experiments/Z4,no,mono,no,18,no,black,no,no,None,null,768,psycho,psycho,0w1cb,1,osweb,1.3.3,s,enter,y,1,,,y,,,enter,s,55,35148,1241,,,463,,,1269,55,2,psycho,1.62E+12,Square.jpg,1024,2,48000,-16,experiment,139,6404,Experiment 2,4647,odd,4246,86,197717,,86,86,55,183562,,,184809,,198812,,2965,4245,198230,,198746,2965,New experiment,2,15,66806,93,yes,1024,6276
16,16,719,719,white,139,Default,no,psycho,psycho,psycho,0,139,1,4647,OSWeb experiment,uniform,0,0,0,0,83,,easy,0,0,0,4,0,83,,,83,,83,83,,0,4,0,4,83,,83,4,,Fri Mar 19 2021 09:26:39 GMT+0000 (Greenwich Mean Time),The main experiment item,yes,,/Users/hannahwindmill/Desktop/OneDrive/PhD/Teaching/experiments/Z4,no,mono,no,18,no,black,no,no,None,null,768,psycho,psycho,0w1cb,1,osweb,1.3.3,None,enter,y,1,,,y,,,enter,None,816,35148,1241,,,463,,,1269,816,2,psycho,1.62E+12,Star.jpg,1024,2,48000,-16,experiment,139,6404,Experiment 2,4647,odd,4246,86,198839,,86,86,55,183562,,,184809,,200678,,2965,4245,199346,,199861,2965,New experiment,2,15,67622,94,yes,1024,6276
16,16,720,720,white,139,Default,no,psycho,psycho,psycho,0,139,1,4647,OSWeb experiment,uniform,0,0,0,0,84,,easy,0,0,0,4,0,84,,,84,,84,84,,0,4,0,4,84,,84,4,,Fri Mar 19 2021 09:26:39 GMT+0000 (Greenwich Mean Time),The main experiment item,yes,,/Users/hannahwindmill/Desktop/OneDrive/PhD/Teaching/experiments/Z4,no,mono,no,18,no,black,no,no,None,null,768,psycho,psycho,0w1cb,1,osweb,1.3.3,None,enter,y,1,,,y,,,enter,None,816,35148,1241,,,463,,,1269,816,2,psycho,1.62E+12,Triangle.jpg,1024,2,48000,-16,experiment,139,6404,Experiment 2,4647,odd,4246,86,200698,,86,86,55,183562,,,184809,,202542,,2965,4245,201211,,201726,2965,New experiment,2,15,68438,95,yes,1024,6276
16,16,721,721,white,139,Default,no,psycho,psycho,psycho,0,139,1,4647,OSWeb experiment,uniform,0,0,0,0,85,,easy,0,0,0,4,0,85,,,85,,85,85,,0,4,0,4,85,,85,4,,Fri Mar 19 2021 09:26:39 GMT+0000 (Greenwich Mean Time),The main experiment item,yes,,/Users/hannahwindmill/Desktop/OneDrive/PhD/Teaching/experiments/Z4,no,mono,no,18,no,black,no,no,None,null,768,psycho,psycho,0w1cb,1,osweb,1.3.3,None,enter,y,1,,,y,,,enter,None,816,35148,1241,,,463,,,1269,816,2,psycho,1.62E+12,Circle.jpg,1024,2,48000,-16,experiment,139,6404,Experiment 2,4647,odd,4246,86,202566,,86,86,55,183562,,,184809,,204407,,2965,4245,203076,,203591,2965,New experiment,2,15,69254,96,yes,1024,6276
15,15,722,722,white,139,Default,no,psycho,psycho,psycho,0,139,1,4647,OSWeb experiment,uniform,0,0,0,0,86,,easy,0,0,0,4,0,86,,,86,,86,86,,0,4,0,4,86,,86,4,,Fri Mar 19 2021 09:26:39 GMT+0000 (Greenwich Mean Time),The main experiment item,yes,,/Users/hannahwindmill/Desktop/OneDrive/PhD/Teaching/experiments/Z4,no,mono,no,18,no,black,no,no,None,null,768,psycho,psycho,0w1cb,1,osweb,1.3.3,None,enter,y,1,,,y,,,enter,None,816,35148,1241,,,463,,,1269,816,2,psycho,1.62E+12,Diamond.jpg,1024,2,48000,-16,experiment,139,6404,Experiment 2,4647,odd,4246,86,204430,,86,86,55,183562,,,184809,,206272,,2965,4245,204941,,205456,2965,New experiment,2,15,70070,97,yes,1024,6276
16,16,717,717,white,139,Default,no,psycho,psycho,psycho,0,139,1,4647,OSWeb experiment,uniform,1,0,0,0,87,,easy,0,0,0,4,0,87,,,87,,87,87,,0,4,0,4,87,,87,4,s,Fri Mar 19 2021 09:26:39 GMT+0000 (Greenwich Mean Time),The main experiment item,yes,,/Users/hannahwindmill/Desktop/OneDrive/PhD/Teaching/experiments/Z4,no,mono,no,18,no,black,no,no,None,null,768,psycho,psycho,0w1cb,1,osweb,1.3.3,s,enter,y,1,,,y,,,enter,s,147,35148,1241,,,463,,,1269,147,2,psycho,1.62E+12,Square.jpg,1024,2,48000,-16,experiment,139,6404,Experiment 2,4647,odd,4246,86,206300,,86,86,55,183562,,,184809,,207471,,2965,4245,206806,,207321,2965,New experiment,2,16,70217,98,yes,1024,6276
16,16,718,718,white,139,Default,no,psycho,psycho,psycho,0,139,1,4647,OSWeb experiment,uniform,0,0,0,0,88,,easy,0,0,0,4,0,88,,,88,,88,88,,0,4,0,4,88,,88,4,,Fri Mar 19 2021 09:26:39 GMT+0000 (Greenwich Mean Time),The main experiment item,yes,,/Users/hannahwindmill/Desktop/OneDrive/PhD/Teaching/experiments/Z4,no,mono,no,18,no,black,no,no,None,null,768,psycho,psycho,0w1cb,1,osweb,1.3.3,None,enter,y,1,,,y,,,enter,None,816,35148,1241,,,463,,,1269,816,2,psycho,1.62E+12,Star.jpg,1024,2,48000,-16,experiment,139,6404,Experiment 2,4647,odd,4246,86,207495,,86,86,55,183562,,,184809,,209336,,2965,4245,208004,,208520,2965,New experiment,2,16,71033,99,yes,1024,6276
16,16,715,715,white,139,Default,no,psycho,psycho,psycho,0,139,1,4647,OSWeb experiment,uniform,0,0,0,0,89,,easy,0,0,0,4,0,89,,,89,,89,89,,0,4,0,4,89,,89,4,,Fri Mar 19 2021 09:26:39 GMT+0000 (Greenwich Mean Time),The main experiment item,yes,,/Users/hannahwindmill/Desktop/OneDrive/PhD/Teaching/experiments/Z4,no,mono,no,18,no,black,no,no,None,null,768,psycho,psycho,0w1cb,1,osweb,1.3.3,y,enter,y,1,,,y,,,enter,None,352,35148,4079,,,352,,,1269,816,2,psycho,1.62E+12,Triangle.jpg,1024,2,48000,-16,experiment,139,6404,Experiment 2,4647,odd,4246,86,209360,,86,86,55,211203,,,215297,,215663,,2965,4245,209869,,210385,2965,New experiment,2,16,72201,101,yes,1024,6276
16,16,716,716,white,139,Default,no,psycho,psycho,psycho,0,139,1,4647,OSWeb experiment,uniform,0,0,0,0,90,,easy,0,0,0,4,0,90,,,90,,90,90,,0,4,0,4,90,,90,4,,Fri Mar 19 2021 09:26:39 GMT+0000 (Greenwich Mean Time),The main experiment item,yes,,/Users/hannahwindmill/Desktop/OneDrive/PhD/Teaching/experiments/Z4,no,mono,no,18,no,black,no,no,None,null,768,psycho,psycho,0w1cb,1,osweb,1.3.3,None,enter,y,1,,,y,,,enter,None,816,35148,4079,,,352,,,1269,816,2,psycho,1.62E+12,Circle.jpg,1024,2,48000,-16,experiment,139,6404,Experiment 2,4647,odd,4246,86,215684,,86,86,55,211203,,,215297,,217528,,2965,4245,216196,,216712,2965,New experiment,2,16,73017,102,yes,1024,6276
16,16,717,717,white,139,Default,no,psycho,psycho,psycho,0,139,1,4647,OSWeb experiment,uniform,0,0,0,0,91,,easy,0,0,0,4,0,91,,,91,,91,91,,0,4,0,4,91,,91,4,,Fri Mar 19 2021 09:26:39 GMT+0000 (Greenwich Mean Time),The main experiment item,yes,,/Users/hannahwindmill/Desktop/OneDrive/PhD/Teaching/experiments/Z4,no,mono,no,18,no,black,no,no,None,null,768,psycho,psycho,0w1cb,1,osweb,1.3.3,None,enter,y,1,,,y,,,enter,None,816,35148,4079,,,352,,,1269,816,2,psycho,1.62E+12,Diamond.jpg,1024,2,48000,-16,experiment,139,6404,Experiment 2,4647,odd,4246,86,217593,,86,86,55,211203,,,215297,,219427,,2965,4245,218095,,218610,2965,New experiment,2,16,73833,103,yes,1024,6276
16,16,710,710,white,139,Default,no,psycho,psycho,psycho,0,139,1,4647,OSWeb experiment,uniform,1,0,0,0,92,,easy,0,0,0,4,0,92,,,92,,92,92,,0,4,0,4,92,,92,4,s,Fri Mar 19 2021 09:26:39 GMT+0000 (Greenwich Mean Time),The main experiment item,yes,,/Users/hannahwindmill/Desktop/OneDrive/PhD/Teaching/experiments/Z4,no,mono,no,18,no,black,no,no,None,null,768,psycho,psycho,0w1cb,1,osweb,1.3.3,s,enter,y,1,,,y,,,enter,s,28,35148,4079,,,352,,,1269,28,2,psycho,1.62E+12,Square.jpg,1024,2,48000,-16,experiment,139,6404,Experiment 2,4647,odd,4246,86,219453,,86,86,55,211203,,,215297,,220509,,2965,4245,219960,,220475,2965,New experiment,2,17,73861,104,yes,1024,6276
16,16,711,711,white,139,Default,no,psycho,psycho,psycho,0,139,1,4647,OSWeb experiment,uniform,0,0,0,0,93,,easy,0,0,0,4,0,93,,,93,,93,93,,0,4,0,4,93,,93,4,,Fri Mar 19 2021 09:26:39 GMT+0000 (Greenwich Mean Time),The main experiment item,yes,,/Users/hannahwindmill/Desktop/OneDrive/PhD/Teaching/experiments/Z4,no,mono,no,18,no,black,no,no,None,null,768,psycho,psycho,0w1cb,1,osweb,1.3.3,None,enter,y,1,,,y,,,enter,None,816,35148,4079,,,352,,,1269,816,2,psycho,1.62E+12,Star.jpg,1024,2,48000,-16,experiment,139,6404,Experiment 2,4647,odd,4246,86,220532,,86,86,55,211203,,,215297,,222374,,2965,4245,221042,,221557,2965,New experiment,2,17,74677,105,yes,1024,6276
16,16,712,712,white,139,Default,no,psycho,psycho,psycho,0,139,1,4647,OSWeb experiment,uniform,0,0,0,0,94,,easy,0,0,0,4,0,94,,,94,,94,94,,0,4,0,4,94,,94,4,,Fri Mar 19 2021 09:26:39 GMT+0000 (Greenwich Mean Time),The main experiment item,yes,,/Users/hannahwindmill/Desktop/OneDrive/PhD/Teaching/experiments/Z4,no,mono,no,18,no,black,no,no,None,null,768,psycho,psycho,0w1cb,1,osweb,1.3.3,None,enter,y,1,,,y,,,enter,None,816,35148,4079,,,352,,,1269,816,2,psycho,1.62E+12,Triangle.jpg,1024,2,48000,-16,experiment,139,6404,Experiment 2,4647,odd,4246,86,222395,,86,86,55,211203,,,215297,,224239,,2965,4245,222907,,223422,2965,New experiment,2,17,75493,106,yes,1024,6276
16,16,713,713,white,139,Default,no,psycho,psycho,psycho,0,139,1,4647,OSWeb experiment,uniform,0,0,0,0,95,,easy,0,0,0,4,0,95,,,95,,95,95,,0,4,0,4,95,,95,4,,Fri Mar 19 2021 09:26:39 GMT+0000 (Greenwich Mean Time),The main experiment item,yes,,/Users/hannahwindmill/Desktop/OneDrive/PhD/Teaching/experiments/Z4,no,mono,no,18,no,black,no,no,None,null,768,psycho,psycho,0w1cb,1,osweb,1.3.3,None,enter,y,1,,,y,,,enter,None,816,35148,4079,,,352,,,1269,816,2,psycho,1.62E+12,Circle.jpg,1024,2,48000,-16,experiment,139,6404,Experiment 2,4647,odd,4246,86,224262,,86,86,55,211203,,,215297,,226103,,2965,4245,224772,,225287,2965,New experiment,2,17,76309,107,yes,1024,6276
16,16,714,714,white,139,Default,no,psycho,psycho,psycho,0,139,1,4647,OSWeb experiment,uniform,0,0,0,0,96,,easy,0,0,0,4,0,96,,,96,,96,96,,0,4,0,4,96,,96,4,,Fri Mar 19 2021 09:26:39 GMT+0000 (Greenwich Mean Time),The main experiment item,yes,,/Users/hannahwindmill/Desktop/OneDrive/PhD/Teaching/experiments/Z4,no,mono,no,18,no,black,no,no,None,null,768,psycho,psycho,0w1cb,1,osweb,1.3.3,None,enter,y,1,,,y,,,enter,None,816,35148,4079,,,352,,,1269,816,2,psycho,1.62E+12,Diamond.jpg,1024,2,48000,-16,experiment,139,6404,Experiment 2,4647,odd,4246,86,226124,,86,86,55,211203,,,215297,,227969,,2965,4245,226637,,227152,2965,New experiment,2,17,77125,108,yes,1024,6276
16,16,709,709,white,139,Default,no,psycho,psycho,psycho,0,139,1,4647,OSWeb experiment,uniform,0,0,0,0,97,,easy,0,0,0,4,0,97,,,97,,97,97,,0,4,0,4,97,,97,4,,Fri Mar 19 2021 09:26:39 GMT+0000 (Greenwich Mean Time),The main experiment item,yes,,/Users/hannahwindmill/Desktop/OneDrive/PhD/Teaching/experiments/Z4,no,mono,no,18,no,black,no,no,None,null,768,psycho,psycho,0w1cb,1,osweb,1.3.3,s,enter,y,1,,,y,,,enter,s,143,35148,4079,,,352,,,1269,143,2,psycho,1.62E+12,Square.jpg,1024,2,48000,-16,experiment,139,6404,Experiment 2,4647,odd,4246,86,227995,,86,86,55,211203,,,215297,,229167,,2965,4245,228502,,229017,2965,New experiment,2,17,77268,109,yes,1024,6276
15,15,710,710,white,139,Default,no,psycho,psycho,psycho,0,139,1,4647,OSWeb experiment,uniform,0,0,0,0,98,,easy,0,0,0,4,0,98,,,98,,98,98,,0,4,0,4,98,,98,4,,Fri Mar 19 2021 09:26:39 GMT+0000 (Greenwich Mean Time),The main experiment item,yes,,/Users/hannahwindmill/Desktop/OneDrive/PhD/Teaching/experiments/Z4,no,mono,no,18,no,black,no,no,None,null,768,psycho,psycho,0w1cb,1,osweb,1.3.3,None,enter,y,1,,,y,,,enter,None,816,35148,4079,,,352,,,1269,816,2,psycho,1.62E+12,Star.jpg,1024,2,48000,-16,experiment,139,6404,Experiment 2,4647,odd,4246,86,229193,,86,86,55,211203,,,215297,,231032,,2965,4245,229701,,230216,2965,New experiment,2,17,78084,110,yes,1024,6276
15,15,711,711,white,139,Default,no,psycho,psycho,psycho,0,139,1,4647,OSWeb experiment,uniform,0,0,0,0,99,,easy,0,0,0,4,0,99,,,99,,99,99,,0,4,0,4,99,,99,4,,Fri Mar 19 2021 09:26:39 GMT+0000 (Greenwich Mean Time),The main experiment item,yes,,/Users/hannahwindmill/Desktop/OneDrive/PhD/Teaching/experiments/Z4,no,mono,no,18,no,black,no,no,None,null,768,psycho,psycho,0w1cb,1,osweb,1.3.3,None,enter,y,1,,,y,,,enter,None,816,35148,4079,,,352,,,1269,816,2,psycho,1.62E+12,Triangle.jpg,1024,2,48000,-16,experiment,139,6404,Experiment 2,4647,odd,4246,86,231057,,86,86,55,211203,,,215297,,232897,,2965,4245,231566,,232081,2965,New experiment,2,17,78900,111,yes,1024,6276
15,15,712,712,white,139,Default,no,psycho,psycho,psycho,0,139,1,4647,OSWeb experiment,uniform,0,0,0,0,99,0,difficult,0,0,0,4,0,99,0,0,99,0,100,99,0,0,4,0,4,99,0,99,4,s,Fri Mar 19 2021 09:26:39 GMT+0000 (Greenwich Mean Time),The main experiment item,yes,,/Users/hannahwindmill/Desktop/OneDrive/PhD/Teaching/experiments/Z4,no,mono,no,18,no,black,no,no,None,null,768,psycho,psycho,0w1cb,1,osweb,1.3.3,None,enter,y,1,,,y,None,enter,enter,None,816,35148,4079,,,352,816,3359,1269,816,2,psycho,1.62E+12,Square.jpg,1024,2,48000,-16,experiment,139,6404,Experiment 2,4647,odd,4246,86,231057,236283,86,86,55,211203,,,215297,237609,238425,232903,2965,4245,231566,236794,232081,2965,New experiment,2,17,79716,112,yes,1024,6276
15,15,709,709,white,139,Default,no,psycho,psycho,psycho,0,139,1,4647,OSWeb experiment,uniform,0,0,0,0,99,1,difficult,0,0,0,4,0,99,1,1,99,1,101,99,1,0,4,0,4,99,1,99,4,,Fri Mar 19 2021 09:26:39 GMT+0000 (Greenwich Mean Time),The main experiment item,yes,,/Users/hannahwindmill/Desktop/OneDrive/PhD/Teaching/experiments/Z4,no,mono,no,18,no,black,no,no,None,null,768,psycho,psycho,0w1cb,1,osweb,1.3.3,s,enter,y,1,,,y,s,enter,enter,None,409,35148,4079,,,352,409,3359,1269,816,2,psycho,1.62E+12,Circle.jpg,1024,2,48000,-16,experiment,139,6404,Experiment 2,4647,odd,4246,86,231057,238452,86,86,55,211203,,,215297,239774,240190,232903,2965,4245,231566,238959,232081,2965,New experiment,2,17,80125,113,yes,1024,6276
15,15,710,710,white,139,Default,no,psycho,psycho,psycho,0,139,1,4647,OSWeb experiment,uniform,0,0,0,0,99,2,difficult,0,0,0,4,0,99,2,2,99,2,102,99,2,0,4,0,4,99,2,99,4,,Fri Mar 19 2021 09:26:39 GMT+0000 (Greenwich Mean Time),The main experiment item,yes,,/Users/hannahwindmill/Desktop/OneDrive/PhD/Teaching/experiments/Z4,no,mono,no,18,no,black,no,no,None,null,768,psycho,psycho,0w1cb,1,osweb,1.3.3,None,enter,y,1,,,y,None,enter,enter,None,816,35148,4079,,,352,816,3359,1269,816,2,psycho,1.62E+12,Star.jpg,1024,2,48000,-16,experiment,139,6404,Experiment 2,4647,odd,4246,86,231057,240212,86,86,55,211203,,,215297,241539,242355,232903,2965,4245,231566,240724,232081,2965,New experiment,2,17,80941,114,yes,1024,6276
15,15,711,711,white,139,Default,no,psycho,psycho,psycho,0,139,1,4647,OSWeb experiment,uniform,0,0,0,0,99,3,difficult,0,0,0,4,0,99,3,3,99,3,103,99,3,0,4,0,4,99,3,99,4,,Fri Mar 19 2021 09:26:39 GMT+0000 (Greenwich Mean Time),The main experiment item,yes,,/Users/hannahwindmill/Desktop/OneDrive/PhD/Teaching/experiments/Z4,no,mono,no,18,no,black,no,no,None,null,768,psycho,psycho,0w1cb,1,osweb,1.3.3,None,enter,y,1,,,y,None,enter,enter,None,816,35148,4079,,,352,816,3359,1269,816,2,psycho,1.62E+12,Triangle.jpg,1024,2,48000,-16,experiment,139,6404,Experiment 2,4647,odd,4246,86,231057,242377,86,86,55,211203,,,215297,243703,244519,232903,2965,4245,231566,242888,232081,2965,New experiment,2,17,81757,115,yes,1024,6276
15,15,712,712,white,139,Default,no,psycho,psycho,psycho,0,139,1,4647,OSWeb experiment,uniform,0,0,0,0,99,4,difficult,0,0,0,4,0,99,4,4,99,4,104,99,4,0,4,0,4,99,4,99,4,,Fri Mar 19 2021 09:26:39 GMT+0000 (Greenwich Mean Time),The main experiment item,yes,,/Users/hannahwindmill/Desktop/OneDrive/PhD/Teaching/experiments/Z4,no,mono,no,18,no,black,no,no,None,null,768,psycho,psycho,0w1cb,1,osweb,1.3.3,None,enter,y,1,,,y,None,enter,enter,None,816,35148,4079,,,352,816,3359,1269,816,2,psycho,1.62E+12,Triangle.jpg,1024,2,48000,-16,experiment,139,6404,Experiment 2,4647,odd,4246,86,231057,244545,86,86,55,211203,,,215297,245868,246684,232903,2965,4245,231566,245053,232081,2965,New experiment,2,17,82573,116,yes,1024,6276
15,15,713,713,white,139,Default,no,psycho,psycho,psycho,0,139,1,4647,OSWeb experiment,uniform,0,0,0,0,99,5,difficult,0,0,0,4,0,99,5,5,99,5,105,99,5,0,4,0,4,99,5,99,4,,Fri Mar 19 2021 09:26:39 GMT+0000 (Greenwich Mean Time),The main experiment item,yes,,/Users/hannahwindmill/Desktop/OneDrive/PhD/Teaching/experiments/Z4,no,mono,no,18,no,black,no,no,None,null,768,psycho,psycho,0w1cb,1,osweb,1.3.3,None,enter,y,1,,,y,None,enter,enter,None,816,35148,4079,,,352,816,3359,1269,816,2,psycho,1.62E+12,Star.jpg,1024,2,48000,-16,experiment,139,6404,Experiment 2,4647,odd,4246,86,231057,246703,86,86,55,211203,,,215297,248033,248849,232903,2965,4245,231566,247217,232081,2965,New experiment,2,17,83389,117,yes,1024,6276
14,14,714,714,white,139,Default,no,psycho,psycho,psycho,0,139,1,4647,OSWeb experiment,uniform,0,0,0,0,99,6,difficult,0,0,0,4,0,99,6,6,99,6,106,99,6,0,4,0,4,99,6,99,4,,Fri Mar 19 2021 09:26:39 GMT+0000 (Greenwich Mean Time),The main experiment item,yes,,/Users/hannahwindmill/Desktop/OneDrive/PhD/Teaching/experiments/Z4,no,mono,no,18,no,black,no,no,None,null,768,psycho,psycho,0w1cb,1,osweb,1.3.3,None,enter,y,1,,,y,None,enter,enter,None,816,35148,4079,,,352,816,3359,1269,816,2,psycho,1.62E+12,Triangle.jpg,1024,2,48000,-16,experiment,139,6404,Experiment 2,4647,odd,4246,86,231057,248874,86,86,55,211203,,,215297,250197,251013,232903,2965,4245,231566,249382,232081,2965,New experiment,2,17,84205,118,yes,1024,6276
14,14,714,714,white,139,Default,no,psycho,psycho,psycho,0,139,1,4647,OSWeb experiment,uniform,0,0,0,0,99,7,difficult,0,0,0,4,0,99,7,7,99,7,107,99,7,0,4,0,4,99,7,99,4,,Fri Mar 19 2021 09:26:39 GMT+0000 (Greenwich Mean Time),The main experiment item,yes,,/Users/hannahwindmill/Desktop/OneDrive/PhD/Teaching/experiments/Z4,no,mono,no,18,no,black,no,no,None,null,768,psycho,psycho,0w1cb,1,osweb,1.3.3,None,enter,y,1,,,y,None,enter,enter,None,816,35148,4079,,,352,816,3359,1269,816,2,psycho,1.62E+12,Triangle.jpg,1024,2,48000,-16,experiment,139,6404,Experiment 2,4647,odd,4246,86,231057,251035,86,86,55,211203,,,215297,252362,253178,232903,2965,4245,231566,251547,232081,2965,New experiment,2,17,85021,119,yes,1024,6276
14,14,715,715,white,139,Default,no,psycho,psycho,psycho,0,139,1,4647,OSWeb experiment,uniform,0,0,0,0,99,8,difficult,0,0,0,4,0,99,8,8,99,8,108,99,8,0,4,0,4,99,8,99,4,,Fri Mar 19 2021 09:26:39 GMT+0000 (Greenwich Mean Time),The main experiment item,yes,,/Users/hannahwindmill/Desktop/OneDrive/PhD/Teaching/experiments/Z4,no,mono,no,18,no,black,no,no,None,null,768,psycho,psycho,0w1cb,1,osweb,1.3.3,None,enter,y,1,,,y,None,enter,enter,None,816,35148,4079,,,352,816,3359,1269,816,2,psycho,1.62E+12,Star.jpg,1024,2,48000,-16,experiment,139,6404,Experiment 2,4647,odd,4246,86,231057,253207,86,86,55,211203,,,215297,254526,255342,232903,2965,4245,231566,253712,232081,2965,New experiment,2,17,85837,120,yes,1024,6276
14,14,716,716,white,139,Default,no,psycho,psycho,psycho,0,139,1,4647,OSWeb experiment,uniform,0,0,0,0,99,9,difficult,0,0,0,4,0,99,9,9,99,9,109,99,9,0,4,0,4,99,9,99,4,,Fri Mar 19 2021 09:26:39 GMT+0000 (Greenwich Mean Time),The main experiment item,yes,,/Users/hannahwindmill/Desktop/OneDrive/PhD/Teaching/experiments/Z4,no,mono,no,18,no,black,no,no,None,null,768,psycho,psycho,0w1cb,1,osweb,1.3.3,None,enter,y,1,,,y,None,enter,enter,None,816,35148,4079,,,352,816,3359,1269,816,2,psycho,1.62E+12,Circle.jpg,1024,2,48000,-16,experiment,139,6404,Experiment 2,4647,odd,4246,86,231057,255364,86,86,55,211203,,,215297,256691,257507,232903,2965,4245,231566,255876,232081,2965,New experiment,2,17,86653,121,yes,1024,6276
14,14,717,717,white,139,Default,no,psycho,psycho,psycho,0,139,1,4647,OSWeb experiment,uniform,0,0,0,0,99,10,difficult,0,0,0,4,0,99,10,10,99,10,110,99,10,0,4,0,4,99,10,99,4,s,Fri Mar 19 2021 09:26:39 GMT+0000 (Greenwich Mean Time),The main experiment item,yes,,/Users/hannahwindmill/Desktop/OneDrive/PhD/Teaching/experiments/Z4,no,mono,no,18,no,black,no,no,None,null,768,psycho,psycho,0w1cb,1,osweb,1.3.3,None,enter,y,1,,,y,None,enter,enter,None,816,35148,4079,,,352,816,3359,1269,816,2,psycho,1.62E+12,Square.jpg,1024,2,48000,-16,experiment,139,6404,Experiment 2,4647,odd,4246,86,231057,257534,86,86,55,211203,,,215297,258856,259672,232903,2965,4245,231566,258041,232081,2965,New experiment,2,17,87469,122,yes,1024,6276
15,15,713,713,white,139,Default,no,psycho,psycho,psycho,0,139,1,4647,OSWeb experiment,uniform,1,0,0,0,99,11,difficult,0,0,0,4,0,99,11,11,99,11,111,99,11,0,4,0,4,99,11,99,4,s,Fri Mar 19 2021 09:26:39 GMT+0000 (Greenwich Mean Time),The main experiment item,yes,,/Users/hannahwindmill/Desktop/OneDrive/PhD/Teaching/experiments/Z4,no,mono,no,18,no,black,no,no,None,null,768,psycho,psycho,0w1cb,1,osweb,1.3.3,s,enter,y,1,,,y,s,enter,enter,None,183,35148,4079,,,352,183,3359,1269,816,2,psycho,1.62E+12,Square.jpg,1024,2,48000,-16,experiment,139,6404,Experiment 2,4647,odd,4246,86,231057,259695,86,86,55,211203,,,215297,261020,261204,232903,2965,4245,231566,260205,232081,2965,New experiment,2,18,87652,123,yes,1024,6276
15,15,713,713,white,139,Default,no,psycho,psycho,psycho,0,139,1,4647,OSWeb experiment,uniform,0,0,0,0,99,12,difficult,0,0,0,4,0,99,12,12,99,12,112,99,12,0,4,0,4,99,12,99,4,,Fri Mar 19 2021 09:26:39 GMT+0000 (Greenwich Mean Time),The main experiment item,yes,,/Users/hannahwindmill/Desktop/OneDrive/PhD/Teaching/experiments/Z4,no,mono,no,18,no,black,no,no,None,null,768,psycho,psycho,0w1cb,1,osweb,1.3.3,None,enter,y,1,,,y,None,enter,enter,None,816,35148,4079,,,352,816,3359,1269,816,2,psycho,1.62E+12,Star.jpg,1024,2,48000,-16,experiment,139,6404,Experiment 2,4647,odd,4246,86,231057,261226,86,86,55,211203,,,215297,262552,263369,232903,2965,4245,231566,261737,232081,2965,New experiment,2,18,88468,124,yes,1024,6276
14,14,714,714,white,139,Default,no,psycho,psycho,psycho,0,139,1,4647,OSWeb experiment,uniform,0,0,0,0,99,13,difficult,0,0,0,4,0,99,13,13,99,13,113,99,13,0,4,0,4,99,13,99,4,,Fri Mar 19 2021 09:26:39 GMT+0000 (Greenwich Mean Time),The main experiment item,yes,,/Users/hannahwindmill/Desktop/OneDrive/PhD/Teaching/experiments/Z4,no,mono,no,18,no,black,no,no,None,null,768,psycho,psycho,0w1cb,1,osweb,1.3.3,None,enter,y,1,,,y,None,enter,enter,None,816,35148,4079,,,352,816,3359,1269,816,2,psycho,1.62E+12,Star.jpg,1024,2,48000,-16,experiment,139,6404,Experiment 2,4647,odd,4246,86,231057,263391,86,86,55,211203,,,215297,264717,265533,232903,2965,4245,231566,263902,232081,2965,New experiment,2,18,89284,125,yes,1024,6276
14,14,712,712,white,139,Default,no,psycho,psycho,psycho,0,139,1,4647,OSWeb experiment,uniform,0,0,0,0,99,14,difficult,0,0,0,4,0,99,14,14,99,14,114,99,14,0,4,0,4,99,14,99,4,,Fri Mar 19 2021 09:26:39 GMT+0000 (Greenwich Mean Time),The main experiment item,yes,,/Users/hannahwindmill/Desktop/OneDrive/PhD/Teaching/experiments/Z4,no,mono,no,18,no,black,no,no,None,null,768,psycho,psycho,0w1cb,1,osweb,1.3.3,y,enter,y,1,y,y,y,None,enter,enter,None,378,35148,4079,4174,378,352,815,3359,1269,816,2,psycho,1.62E+12,Diamond.jpg,1024,2,48000,-16,experiment,139,6404,Experiment 2,4647,odd,4246,86,231057,265556,86,86,55,211203,267699,271877,215297,266882,272260,232903,2965,4245,231566,266066,232081,2965,New experiment,2,18,90477,127,yes,1024,6276
14,14,713,713,white,139,Default,no,psycho,psycho,psycho,0,139,1,4647,OSWeb experiment,uniform,0,0,0,0,99,15,difficult,0,0,0,4,0,99,15,15,99,15,115,99,15,0,4,0,4,99,15,99,4,,Fri Mar 19 2021 09:26:39 GMT+0000 (Greenwich Mean Time),The main experiment item,yes,,/Users/hannahwindmill/Desktop/OneDrive/PhD/Teaching/experiments/Z4,no,mono,no,18,no,black,no,no,None,null,768,psycho,psycho,0w1cb,1,osweb,1.3.3,None,enter,y,1,y,y,y,None,enter,enter,None,815,35148,4079,4174,378,352,815,3359,1269,816,2,psycho,1.62E+12,Star.jpg,1024,2,48000,-16,experiment,139,6404,Experiment 2,4647,odd,4246,86,231057,272283,86,86,55,211203,267699,271877,215297,273609,274425,232903,2965,4245,231566,272793,232081,2965,New experiment,2,18,91292,128,yes,1024,6276
15,15,709,709,white,139,Default,no,psycho,psycho,psycho,0,139,1,4647,OSWeb experiment,uniform,1,0,0,0,99,16,difficult,0,0,0,4,0,99,16,16,99,16,116,99,16,0,4,0,4,99,16,99,4,s,Fri Mar 19 2021 09:26:39 GMT+0000 (Greenwich Mean Time),The main experiment item,yes,,/Users/hannahwindmill/Desktop/OneDrive/PhD/Teaching/experiments/Z4,no,mono,no,18,no,black,no,no,None,null,768,psycho,psycho,0w1cb,1,osweb,1.3.3,s,enter,y,1,y,y,y,s,enter,enter,None,130,35148,4079,4174,378,352,130,3359,1269,816,2,psycho,1.62E+12,Square.jpg,1024,2,48000,-16,experiment,139,6404,Experiment 2,4647,odd,4246,86,231057,274445,86,86,55,211203,267699,271877,215297,275773,275907,232903,2965,4245,231566,274958,232081,2965,New experiment,2,19,91422,129,yes,1024,6276
15,15,710,710,white,139,Default,no,psycho,psycho,psycho,0,139,1,4647,OSWeb experiment,uniform,0,0,0,0,99,17,difficult,0,0,0,4,0,99,17,17,99,17,117,99,17,0,4,0,4,99,17,99,4,,Fri Mar 19 2021 09:26:39 GMT+0000 (Greenwich Mean Time),The main experiment item,yes,,/Users/hannahwindmill/Desktop/OneDrive/PhD/Teaching/experiments/Z4,no,mono,no,18,no,black,no,no,None,null,768,psycho,psycho,0w1cb,1,osweb,1.3.3,None,enter,y,1,y,y,y,None,enter,enter,None,816,35148,4079,4174,378,352,816,3359,1269,816,2,psycho,1.62E+12,Diamond.jpg,1024,2,48000,-16,experiment,139,6404,Experiment 2,4647,odd,4246,86,231057,275927,86,86,55,211203,267699,271877,215297,277255,278072,232903,2965,4245,231566,276440,232081,2965,New experiment,2,19,92238,130,yes,1024,6276
15,15,710,710,white,139,Default,no,psycho,psycho,psycho,0,139,1,4647,OSWeb experiment,uniform,0,0,0,0,99,18,difficult,0,0,0,4,0,99,18,18,99,18,118,99,18,0,4,0,4,99,18,99,4,,Fri Mar 19 2021 09:26:39 GMT+0000 (Greenwich Mean Time),The main experiment item,yes,,/Users/hannahwindmill/Desktop/OneDrive/PhD/Teaching/experiments/Z4,no,mono,no,18,no,black,no,no,None,null,768,psycho,psycho,0w1cb,1,osweb,1.3.3,None,enter,y,1,y,y,y,None,enter,enter,None,816,35148,4079,4174,378,352,816,3359,1269,816,2,psycho,1.62E+12,Diamond.jpg,1024,2,48000,-16,experiment,139,6404,Experiment 2,4647,odd,4246,86,231057,278136,86,86,55,211203,267699,271877,215297,279453,280269,232903,2965,4245,231566,278638,232081,2965,New experiment,2,19,93054,131,yes,1024,6276
14,14,711,711,white,139,Default,no,psycho,psycho,psycho,0,139,1,4647,OSWeb experiment,uniform,0,0,0,0,99,19,difficult,0,0,0,4,0,99,19,19,99,19,119,99,19,0,4,0,4,99,19,99,4,,Fri Mar 19 2021 09:26:39 GMT+0000 (Greenwich Mean Time),The main experiment item,yes,,/Users/hannahwindmill/Desktop/OneDrive/PhD/Teaching/experiments/Z4,no,mono,no,18,no,black,no,no,None,null,768,psycho,psycho,0w1cb,1,osweb,1.3.3,None,enter,y,1,y,y,y,None,enter,enter,None,815,35148,4079,4174,378,352,815,3359,1269,816,2,psycho,1.62E+12,Circle.jpg,1024,2,48000,-16,experiment,139,6404,Experiment 2,4647,odd,4246,86,231057,280292,86,86,55,211203,267699,271877,215297,281618,282434,232903,2965,4245,231566,280803,232081,2965,New experiment,2,19,93869,132,yes,1024,6276
14,14,712,712,white,139,Default,no,psycho,psycho,psycho,0,139,1,4647,OSWeb experiment,uniform,0,0,0,0,99,20,difficult,0,0,0,4,0,99,20,20,99,20,120,99,20,0,4,0,4,99,20,99,4,,Fri Mar 19 2021 09:26:39 GMT+0000 (Greenwich Mean Time),The main experiment item,yes,,/Users/hannahwindmill/Desktop/OneDrive/PhD/Teaching/experiments/Z4,no,mono,no,18,no,black,no,no,None,null,768,psycho,psycho,0w1cb,1,osweb,1.3.3,None,enter,y,1,y,y,y,None,enter,enter,None,816,35148,4079,4174,378,352,816,3359,1269,816,2,psycho,1.62E+12,Triangle.jpg,1024,2,48000,-16,experiment,139,6404,Experiment 2,4647,odd,4246,86,231057,282462,86,86,55,211203,267699,271877,215297,283782,284599,232903,2965,4245,231566,282967,232081,2965,New experiment,2,19,94685,133,yes,1024,6276
14,14,713,713,white,139,Default,no,psycho,psycho,psycho,0,139,1,4647,OSWeb experiment,uniform,0,0,0,0,99,21,difficult,0,0,0,4,0,99,21,21,99,21,121,99,21,0,4,0,4,99,21,99,4,,Fri Mar 19 2021 09:26:39 GMT+0000 (Greenwich Mean Time),The main experiment item,yes,,/Users/hannahwindmill/Desktop/OneDrive/PhD/Teaching/experiments/Z4,no,mono,no,18,no,black,no,no,None,null,768,psycho,psycho,0w1cb,1,osweb,1.3.3,None,enter,y,1,y,y,y,None,enter,enter,None,816,35148,4079,4174,378,352,816,3359,1269,816,2,psycho,1.62E+12,Diamond.jpg,1024,2,48000,-16,experiment,139,6404,Experiment 2,4647,odd,4246,86,231057,284620,86,86,55,211203,267699,271877,215297,285947,286763,232903,2965,4245,231566,285132,232081,2965,New experiment,2,19,95501,134,yes,1024,6276
14,14,713,713,white,139,Default,no,psycho,psycho,psycho,0,139,1,4647,OSWeb experiment,uniform,0,0,0,0,99,22,difficult,0,0,0,4,0,99,22,22,99,22,122,99,22,0,4,0,4,99,22,99,4,,Fri Mar 19 2021 09:26:39 GMT+0000 (Greenwich Mean Time),The main experiment item,yes,,/Users/hannahwindmill/Desktop/OneDrive/PhD/Teaching/experiments/Z4,no,mono,no,18,no,black,no,no,None,null,768,psycho,psycho,0w1cb,1,osweb,1.3.3,None,enter,y,1,y,y,y,None,enter,enter,None,816,35148,4079,4174,378,352,816,3359,1269,816,2,psycho,1.62E+12,Diamond.jpg,1024,2,48000,-16,experiment,139,6404,Experiment 2,4647,odd,4246,86,231057,286789,86,86,55,211203,267699,271877,215297,288111,288928,232903,2965,4245,231566,287296,232081,2965,New experiment,2,19,96317,135,yes,1024,6276
14,14,714,714,white,139,Default,no,psycho,psycho,psycho,0,139,1,4647,OSWeb experiment,uniform,0,0,0,0,99,23,difficult,0,0,0,4,0,99,23,23,99,23,123,99,23,0,4,0,4,99,23,99,4,,Fri Mar 19 2021 09:26:39 GMT+0000 (Greenwich Mean Time),The main experiment item,yes,,/Users/hannahwindmill/Desktop/OneDrive/PhD/Teaching/experiments/Z4,no,mono,no,18,no,black,no,no,None,null,768,psycho,psycho,0w1cb,1,osweb,1.3.3,None,enter,y,1,y,y,y,None,enter,enter,None,816,35148,4079,4174,378,352,816,3359,1269,816,2,psycho,1.62E+12,Diamond.jpg,1024,2,48000,-16,experiment,139,6404,Experiment 2,4647,odd,4246,86,231057,288949,86,86,55,211203,267699,271877,215297,290276,291092,232903,2965,4245,231566,289461,232081,2965,New experiment,2,19,97133,136,yes,1024,6276
14,14,715,715,white,139,Default,no,psycho,psycho,psycho,0,139,1,4647,OSWeb experiment,uniform,0,0,0,0,99,24,difficult,0,0,0,4,0,99,24,24,99,24,124,99,24,0,4,0,4,99,24,99,4,,Fri Mar 19 2021 09:26:39 GMT+0000 (Greenwich Mean Time),The main experiment item,yes,,/Users/hannahwindmill/Desktop/OneDrive/PhD/Teaching/experiments/Z4,no,mono,no,18,no,black,no,no,None,null,768,psycho,psycho,0w1cb,1,osweb,1.3.3,None,enter,y,1,y,y,y,None,enter,enter,None,816,35148,4079,4174,378,352,816,3359,1269,816,2,psycho,1.62E+12,Diamond.jpg,1024,2,48000,-16,experiment,139,6404,Experiment 2,4647,odd,4246,86,231057,291117,86,86,55,211203,267699,271877,215297,292441,293257,232903,2965,4245,231566,291626,232081,2965,New experiment,2,19,97949,137,yes,1024,6276
14,14,716,716,white,139,Default,no,psycho,psycho,psycho,0,139,1,4647,OSWeb experiment,uniform,0,0,0,0,99,25,difficult,0,0,0,4,0,99,25,25,99,25,125,99,25,0,4,0,4,99,25,99,4,,Fri Mar 19 2021 09:26:39 GMT+0000 (Greenwich Mean Time),The main experiment item,yes,,/Users/hannahwindmill/Desktop/OneDrive/PhD/Teaching/experiments/Z4,no,mono,no,18,no,black,no,no,None,null,768,psycho,psycho,0w1cb,1,osweb,1.3.3,None,enter,y,1,y,y,y,None,enter,enter,None,816,35148,4079,4174,378,352,816,3359,1269,816,2,psycho,1.62E+12,Diamond.jpg,1024,2,48000,-16,experiment,139,6404,Experiment 2,4647,odd,4246,86,231057,293280,86,86,55,211203,267699,271877,215297,294605,295422,232903,2965,4245,231566,293790,232081,2965,New experiment,2,19,98765,138,yes,1024,6276
14,14,716,716,white,139,Default,no,psycho,psycho,psycho,0,139,1,4647,OSWeb experiment,uniform,0,0,0,0,99,26,difficult,0,0,0,4,0,99,26,26,99,26,126,99,26,0,4,0,4,99,26,99,4,,Fri Mar 19 2021 09:26:39 GMT+0000 (Greenwich Mean Time),The main experiment item,yes,,/Users/hannahwindmill/Desktop/OneDrive/PhD/Teaching/experiments/Z4,no,mono,no,18,no,black,no,no,None,null,768,psycho,psycho,0w1cb,1,osweb,1.3.3,None,enter,y,1,y,y,y,None,enter,enter,None,815,35148,4079,4174,378,352,815,3359,1269,816,2,psycho,1.62E+12,Circle.jpg,1024,2,48000,-16,experiment,139,6404,Experiment 2,4647,odd,4246,86,231057,295447,86,86,55,211203,267699,271877,215297,296771,297586,232903,2965,4245,231566,295955,232081,2965,New experiment,2,19,99580,139,yes,1024,6276
14,14,717,717,white,139,Default,no,psycho,psycho,psycho,0,139,1,4647,OSWeb experiment,uniform,0,0,0,0,99,27,difficult,0,0,0,4,0,99,27,27,99,27,127,99,27,0,4,0,4,99,27,99,4,s,Fri Mar 19 2021 09:26:39 GMT+0000 (Greenwich Mean Time),The main experiment item,yes,,/Users/hannahwindmill/Desktop/OneDrive/PhD/Teaching/experiments/Z4,no,mono,no,18,no,black,no,no,None,null,768,psycho,psycho,0w1cb,1,osweb,1.3.3,None,enter,y,1,y,y,y,None,enter,enter,None,816,35148,4079,4174,378,352,816,3359,1269,816,2,psycho,1.62E+12,Square.jpg,1024,2,48000,-16,experiment,139,6404,Experiment 2,4647,odd,4246,86,231057,297607,86,86,55,211203,267699,271877,215297,298935,299751,232903,2965,4245,231566,298119,232081,2965,New experiment,2,19,100396,140,yes,1024,6276
13,13,718,718,white,139,Default,no,psycho,psycho,psycho,0,139,1,4647,OSWeb experiment,uniform,0,0,0,0,99,28,difficult,0,0,0,4,0,99,28,28,99,28,128,99,28,0,4,0,4,99,28,99,4,,Fri Mar 19 2021 09:26:39 GMT+0000 (Greenwich Mean Time),The main experiment item,yes,,/Users/hannahwindmill/Desktop/OneDrive/PhD/Teaching/experiments/Z4,no,mono,no,18,no,black,no,no,None,null,768,psycho,psycho,0w1cb,1,osweb,1.3.3,None,enter,y,1,y,y,y,None,enter,enter,None,816,35148,4079,4174,378,352,816,3359,1269,816,2,psycho,1.62E+12,Diamond.jpg,1024,2,48000,-16,experiment,139,6404,Experiment 2,4647,odd,4246,86,231057,299774,86,86,55,211203,267699,271877,215297,301099,301915,232903,2965,4245,231566,300284,232081,2965,New experiment,2,19,101212,141,yes,1024,6276
13,13,717,717,white,139,Default,no,psycho,psycho,psycho,0,139,1,4647,OSWeb experiment,uniform,0,0,0,0,99,29,difficult,0,0,0,4,0,99,29,29,99,29,129,99,29,0,4,0,4,99,29,99,4,,Fri Mar 19 2021 09:26:39 GMT+0000 (Greenwich Mean Time),The main experiment item,yes,,/Users/hannahwindmill/Desktop/OneDrive/PhD/Teaching/experiments/Z4,no,mono,no,18,no,black,no,no,None,null,768,psycho,psycho,0w1cb,1,osweb,1.3.3,y,enter,y,1,y,y,y,None,enter,enter,None,475,35148,4079,3637,475,352,816,3359,1269,816,2,psycho,1.62E+12,Circle.jpg,1024,2,48000,-16,experiment,139,6404,Experiment 2,4647,odd,4246,86,231057,301936,86,86,55,211203,304081,307727,215297,303264,308209,232903,2965,4245,231566,302449,232081,2965,New experiment,2,19,102503,143,yes,1024,6276
13,13,717,717,white,139,Default,no,psycho,psycho,psycho,0,139,1,4647,OSWeb experiment,uniform,0,0,0,0,99,30,difficult,0,0,0,4,0,99,30,30,99,30,130,99,30,0,4,0,4,99,30,99,4,,Fri Mar 19 2021 09:26:39 GMT+0000 (Greenwich Mean Time),The main experiment item,yes,,/Users/hannahwindmill/Desktop/OneDrive/PhD/Teaching/experiments/Z4,no,mono,no,18,no,black,no,no,None,null,768,psycho,psycho,0w1cb,1,osweb,1.3.3,None,enter,y,1,y,y,y,None,enter,enter,None,816,35148,4079,3637,475,352,816,3359,1269,816,2,psycho,1.62E+12,Triangle.jpg,1024,2,48000,-16,experiment,139,6404,Experiment 2,4647,odd,4246,86,231057,308237,86,86,55,211203,304081,307727,215297,309558,310374,232903,2965,4245,231566,308743,232081,2965,New experiment,2,19,103319,144,yes,1024,6276
13,13,718,718,white,139,Default,no,psycho,psycho,psycho,0,139,1,4647,OSWeb experiment,uniform,0,0,0,0,99,31,difficult,0,0,0,4,0,99,31,31,99,31,131,99,31,0,4,0,4,99,31,99,4,,Fri Mar 19 2021 09:26:39 GMT+0000 (Greenwich Mean Time),The main experiment item,yes,,/Users/hannahwindmill/Desktop/OneDrive/PhD/Teaching/experiments/Z4,no,mono,no,18,no,black,no,no,None,null,768,psycho,psycho,0w1cb,1,osweb,1.3.3,None,enter,y,1,y,y,y,None,enter,enter,None,816,35148,4079,3637,475,352,816,3359,1269,816,2,psycho,1.62E+12,Circle.jpg,1024,2,48000,-16,experiment,139,6404,Experiment 2,4647,odd,4246,86,231057,310395,86,86,55,211203,304081,307727,215297,311723,312539,232903,2965,4245,231566,310907,232081,2965,New experiment,2,19,104135,145,yes,1024,6276
13,13,719,719,white,139,Default,no,psycho,psycho,psycho,0,139,1,4647,OSWeb experiment,uniform,0,0,0,0,99,32,difficult,0,0,0,4,0,99,32,32,99,32,132,99,32,0,4,0,4,99,32,99,4,,Fri Mar 19 2021 09:26:39 GMT+0000 (Greenwich Mean Time),The main experiment item,yes,,/Users/hannahwindmill/Desktop/OneDrive/PhD/Teaching/experiments/Z4,no,mono,no,18,no,black,no,no,None,null,768,psycho,psycho,0w1cb,1,osweb,1.3.3,None,enter,y,1,y,y,y,None,enter,enter,None,816,35148,4079,3637,475,352,816,3359,1269,816,2,psycho,1.62E+12,Triangle.jpg,1024,2,48000,-16,experiment,139,6404,Experiment 2,4647,odd,4246,86,231057,312562,86,86,55,211203,304081,307727,215297,313887,314703,232903,2965,4245,231566,313072,232081,2965,New experiment,2,19,104951,146,yes,1024,6276
13,13,720,720,white,139,Default,no,psycho,psycho,psycho,0,139,1,4647,OSWeb experiment,uniform,0,0,0,0,99,33,difficult,0,0,0,4,0,99,33,33,99,33,133,99,33,0,4,0,4,99,33,99,4,,Fri Mar 19 2021 09:26:39 GMT+0000 (Greenwich Mean Time),The main experiment item,yes,,/Users/hannahwindmill/Desktop/OneDrive/PhD/Teaching/experiments/Z4,no,mono,no,18,no,black,no,no,None,null,768,psycho,psycho,0w1cb,1,osweb,1.3.3,None,enter,y,1,y,y,y,None,enter,enter,None,816,35148,4079,3637,475,352,816,3359,1269,816,2,psycho,1.62E+12,Star.jpg,1024,2,48000,-16,experiment,139,6404,Experiment 2,4647,odd,4246,86,231057,314725,86,86,55,211203,304081,307727,215297,316052,316868,232903,2965,4245,231566,315237,232081,2965,New experiment,2,19,105767,147,yes,1024,6276
14,14,718,718,white,139,Default,no,psycho,psycho,psycho,0,139,1,4647,OSWeb experiment,uniform,1,0,0,0,99,34,difficult,0,0,0,4,0,99,34,34,99,34,134,99,34,0,4,0,4,99,34,99,4,s,Fri Mar 19 2021 09:26:39 GMT+0000 (Greenwich Mean Time),The main experiment item,yes,,/Users/hannahwindmill/Desktop/OneDrive/PhD/Teaching/experiments/Z4,no,mono,no,18,no,black,no,no,None,null,768,psycho,psycho,0w1cb,1,osweb,1.3.3,s,enter,y,1,y,y,y,s,enter,enter,None,425,35148,4079,3637,475,352,425,3359,1269,816,2,psycho,1.62E+12,Square.jpg,1024,2,48000,-16,experiment,139,6404,Experiment 2,4647,odd,4246,86,231057,316898,86,86,55,211203,304081,307727,215297,318217,318649,232903,2965,4245,231566,317402,232081,2965,New experiment,2,20,106192,148,yes,1024,6276
14,14,713,713,white,139,Default,no,psycho,psycho,psycho,0,139,1,4647,OSWeb experiment,uniform,1,0,0,0,99,35,difficult,0,0,0,4,0,99,35,35,99,35,135,99,35,0,4,0,4,99,35,99,4,s,Fri Mar 19 2021 09:26:39 GMT+0000 (Greenwich Mean Time),The main experiment item,yes,,/Users/hannahwindmill/Desktop/OneDrive/PhD/Teaching/experiments/Z4,no,mono,no,18,no,black,no,no,None,null,768,psycho,psycho,0w1cb,1,osweb,1.3.3,s,enter,y,1,y,y,y,s,enter,enter,None,11,35148,4079,3637,475,352,11,3359,1269,816,2,psycho,1.62E+12,Square.jpg,1024,2,48000,-16,experiment,139,6404,Experiment 2,4647,odd,4246,86,231057,318678,86,86,55,211203,304081,307727,215297,319998,320015,232903,2965,4245,231566,319183,232081,2965,New experiment,2,21,106203,149,yes,1024,6276
15,15,710,710,white,139,Default,no,psycho,psycho,psycho,0,139,1,4647,OSWeb experiment,uniform,1,0,0,0,99,36,difficult,0,0,0,4,0,99,36,36,99,36,136,99,36,0,4,0,4,99,36,99,4,s,Fri Mar 19 2021 09:26:39 GMT+0000 (Greenwich Mean Time),The main experiment item,yes,,/Users/hannahwindmill/Desktop/OneDrive/PhD/Teaching/experiments/Z4,no,mono,no,18,no,black,no,no,None,null,768,psycho,psycho,0w1cb,1,osweb,1.3.3,s,enter,y,1,y,y,y,s,enter,enter,None,349,35148,4079,3637,475,352,349,3359,1269,816,2,psycho,1.62E+12,Square.jpg,1024,2,48000,-16,experiment,139,6404,Experiment 2,4647,odd,4246,86,231057,320045,86,86,55,211203,304081,307727,215297,321364,321715,232903,2965,4245,231566,320549,232081,2965,New experiment,2,22,106552,150,yes,1024,6276
15,15,711,711,white,139,Default,no,psycho,psycho,psycho,0,139,1,4647,OSWeb experiment,uniform,0,0,0,0,99,37,difficult,0,0,0,4,0,99,37,37,99,37,137,99,37,0,4,0,4,99,37,99,4,,Fri Mar 19 2021 09:26:39 GMT+0000 (Greenwich Mean Time),The main experiment item,yes,,/Users/hannahwindmill/Desktop/OneDrive/PhD/Teaching/experiments/Z4,no,mono,no,18,no,black,no,no,None,null,768,psycho,psycho,0w1cb,1,osweb,1.3.3,None,enter,y,1,y,y,y,None,enter,enter,None,816,35148,4079,3637,475,352,816,3359,1269,816,2,psycho,1.62E+12,Star.jpg,1024,2,48000,-16,experiment,139,6404,Experiment 2,4647,odd,4246,86,231057,321743,86,86,55,211203,304081,307727,215297,323062,323878,232903,2965,4245,231566,322247,232081,2965,New experiment,2,22,107368,151,yes,1024,6276
14,14,712,712,white,139,Default,no,psycho,psycho,psycho,0,139,1,4647,OSWeb experiment,uniform,0,0,0,0,99,38,difficult,0,0,0,4,0,99,38,38,99,38,138,99,38,0,4,0,4,99,38,99,4,,Fri Mar 19 2021 09:26:39 GMT+0000 (Greenwich Mean Time),The main experiment item,yes,,/Users/hannahwindmill/Desktop/OneDrive/PhD/Teaching/experiments/Z4,no,mono,no,18,no,black,no,no,None,null,768,psycho,psycho,0w1cb,1,osweb,1.3.3,None,enter,y,1,y,y,y,None,enter,enter,None,816,35148,4079,3637,475,352,816,3359,1269,816,2,psycho,1.62E+12,Triangle.jpg,1024,2,48000,-16,experiment,139,6404,Experiment 2,4647,odd,4246,86,231057,323947,86,86,55,211203,304081,307727,215297,325276,326093,232903,2965,4245,231566,324462,232081,2965,New experiment,2,22,108184,152,yes,1024,6276
14,14,712,712,white,139,Default,no,psycho,psycho,psycho,0,139,1,4647,OSWeb experiment,uniform,0,0,0,0,99,39,difficult,0,0,0,4,0,99,39,39,99,39,139,99,39,0,4,0,4,99,39,99,4,,Fri Mar 19 2021 09:26:39 GMT+0000 (Greenwich Mean Time),The main experiment item,yes,,/Users/hannahwindmill/Desktop/OneDrive/PhD/Teaching/experiments/Z4,no,mono,no,18,no,black,no,no,None,null,768,psycho,psycho,0w1cb,1,osweb,1.3.3,None,enter,y,1,y,y,y,None,enter,enter,None,816,35148,4079,3637,475,352,816,3359,1269,816,2,psycho,1.62E+12,Star.jpg,1024,2,48000,-16,experiment,139,6404,Experiment 2,4647,odd,4246,86,231057,326116,86,86,55,211203,304081,307727,215297,327441,328257,232903,2965,4245,231566,326626,232081,2965,New experiment,2,22,109000,153,yes,1024,6276
14,14,713,713,white,139,Default,no,psycho,psycho,psycho,0,139,1,4647,OSWeb experiment,uniform,0,0,0,0,99,40,difficult,0,0,0,4,0,99,40,40,99,40,140,99,40,0,4,0,4,99,40,99,4,,Fri Mar 19 2021 09:26:39 GMT+0000 (Greenwich Mean Time),The main experiment item,yes,,/Users/hannahwindmill/Desktop/OneDrive/PhD/Teaching/experiments/Z4,no,mono,no,18,no,black,no,no,None,null,768,psycho,psycho,0w1cb,1,osweb,1.3.3,None,enter,y,1,y,y,y,None,enter,enter,None,816,35148,4079,3637,475,352,816,3359,1269,816,2,psycho,1.62E+12,Triangle.jpg,1024,2,48000,-16,experiment,139,6404,Experiment 2,4647,odd,4246,86,231057,328281,86,86,55,211203,304081,307727,215297,329606,330422,232903,2965,4245,231566,328791,232081,2965,New experiment,2,22,109816,154,yes,1024,6276
14,14,714,714,white,139,Default,no,psycho,psycho,psycho,0,139,1,4647,OSWeb experiment,uniform,0,0,0,0,99,41,difficult,0,0,0,4,0,99,41,41,99,41,141,99,41,0,4,0,4,99,41,99,4,,Fri Mar 19 2021 09:26:39 GMT+0000 (Greenwich Mean Time),The main experiment item,yes,,/Users/hannahwindmill/Desktop/OneDrive/PhD/Teaching/experiments/Z4,no,mono,no,18,no,black,no,no,None,null,768,psycho,psycho,0w1cb,1,osweb,1.3.3,None,enter,y,1,y,y,y,None,enter,enter,None,815,35148,4079,3637,475,352,815,3359,1269,816,2,psycho,1.62E+12,Star.jpg,1024,2,48000,-16,experiment,139,6404,Experiment 2,4647,odd,4246,86,231057,330446,86,86,55,211203,304081,307727,215297,331771,332587,232903,2965,4245,231566,330955,232081,2965,New experiment,2,22,110631,155,yes,1024,6276
14,14,714,714,white,139,Default,no,psycho,psycho,psycho,0,139,1,4647,OSWeb experiment,uniform,0,0,0,0,99,42,difficult,0,0,0,4,0,99,42,42,99,42,142,99,42,0,4,0,4,99,42,99,4,,Fri Mar 19 2021 09:26:39 GMT+0000 (Greenwich Mean Time),The main experiment item,yes,,/Users/hannahwindmill/Desktop/OneDrive/PhD/Teaching/experiments/Z4,no,mono,no,18,no,black,no,no,None,null,768,psycho,psycho,0w1cb,1,osweb,1.3.3,None,enter,y,1,y,y,y,None,enter,enter,None,816,35148,4079,3637,475,352,816,3359,1269,816,2,psycho,1.62E+12,Circle.jpg,1024,2,48000,-16,experiment,139,6404,Experiment 2,4647,odd,4246,86,231057,332610,86,86,55,211203,304081,307727,215297,333935,334751,232903,2965,4245,231566,333120,232081,2965,New experiment,2,22,111447,156,yes,1024,6276
14,14,715,715,white,139,Default,no,psycho,psycho,psycho,0,139,1,4647,OSWeb experiment,uniform,0,0,0,0,99,43,difficult,0,0,0,4,0,99,43,43,99,43,143,99,43,0,4,0,4,99,43,99,4,,Fri Mar 19 2021 09:26:39 GMT+0000 (Greenwich Mean Time),The main experiment item,yes,,/Users/hannahwindmill/Desktop/OneDrive/PhD/Teaching/experiments/Z4,no,mono,no,18,no,black,no,no,None,null,768,psycho,psycho,0w1cb,1,osweb,1.3.3,None,enter,y,1,y,y,y,None,enter,enter,None,815,35148,4079,3637,475,352,815,3359,1269,816,2,psycho,1.62E+12,Star.jpg,1024,2,48000,-16,experiment,139,6404,Experiment 2,4647,odd,4246,86,231057,334774,86,86,55,211203,304081,307727,215297,336100,336916,232903,2965,4245,231566,335285,232081,2965,New experiment,2,22,112262,157,yes,1024,6276
